acc,accuracy,average_response_time,avg_rt,background,bidi,canvas_backend,clock_backend,color_backend,compensation,coordinates,correct,correct_instructions,correct_keyboard_response,correct_response,correct_target,count_about_this_template,count_blank,count_block_loop,count_block_sequence,count_end_of_experiment,count_end_of_practice,count_experiment,count_experimental_loop,count_feedback,count_fixation,count_instructions,count_keyboard_response,count_logger,count_practice_loop,count_prime,count_reset_feedback,count_target,count_trial_sequence,datetime,description,disable_garbage_collection,experiment_file,experiment_path,font_bold,font_family,font_italic,font_size,font_underline,foreground,form_clicks,fullscreen,height,keyboard_backend,live_row,live_row_block_loop,live_row_practice_loop,logfile,mouse_backend,opensesame_codename,opensesame_version,practice,prime,prime_condition,relation,repeat_cycle,response,response_end_of_experiment,response_end_of_practice,response_feedback,response_instructions,response_keyboard_response,response_target,response_time,response_time_end_of_experiment,response_time_end_of_practice,response_time_feedback,response_time_instructions,response_time_keyboard_response,response_time_target,round_decimals,sampler_backend,sound_buf_size,sound_channels,sound_freq,sound_sample_size,start,subject_nr,subject_parity,target,target_condition,time_about_this_template,time_blank,time_block_loop,time_block_sequence,time_end_of_experiment,time_end_of_practice,time_experiment,time_experimental_loop,time_feedback,time_fixation,time_instructions,time_keyboard_response,time_logger,time_practice_loop,time_prime,time_reset_feedback,time_target,time_trial_sequence,title,total_correct,total_response_time,total_responses,uniform_coordinates,width
0,0,0.0279999803751707,0.0279999803751707,white,yes,psycho,psycho,psycho,0,uniform,0,undefined,0,a,1,0,0,0,0,0,0,0,0,,0,0,0,0,0,0,0,0,0,Sat Dec  2 17:32:21 2023,A template containing a practice and an experimental phase,yes,언어학과심리실험_B조_기말과제용심리실험.osexp,C:\Users\caphi\Downloads,no,mono,no,18,no,black,no,no,768,psycho,0,0,0,C:\Users\caphi\Downloads\quickrun.csv,psycho,Lentiform Loewenfeld,3.3.14,yes,국가,artifactual,inclusive,0,None,,,,s,None,a,0.0279999803751707,,,,7848.357099923305,0.0279999803751707,3136.721899965778,2,psycho,1024,2,48000,-16,experiment,999,odd,대한민국,artifactual,,18007.59559997823,17109.762600040995,17109.656899934635,,,9185.249499976637,,,17273.832599981688,9260.003600036724,21262.013099971227,21262.13489996735,17109.145599999465,17490.769000025466,,18124.355499981903,17201.801499933936,Extended template,0,0.0279999803751707,1,yes,1024
0,0,0.0246999552473425,0.0246999552473425,white,yes,psycho,psycho,psycho,0,uniform,0,undefined,0,n,0,0,1,0,0,0,0,0,0,,1,0,1,1,0,1,0,1,1,Sat Dec  2 17:32:21 2023,A template containing a practice and an experimental phase,yes,언어학과심리실험_B조_기말과제용심리실험.osexp,C:\Users\caphi\Downloads,no,mono,no,18,no,black,no,no,768,psycho,1,1,0,C:\Users\caphi\Downloads\quickrun.csv,psycho,Lentiform Loewenfeld,3.3.14,yes,달력,artifactual,same phoneme,0,None,,,,s,None,a,0.0213999301195144,,,,7848.357099923305,0.0213999301195144,828.334299963899,2,psycho,1024,2,48000,-16,experiment,999,odd,달,natural,,22108.39479998685,17109.762600040995,17109.656899934635,,,9185.249499976637,,,21373.53999994229,9260.003600036724,23053.20560000837,23053.32119995728,17109.145599999465,21591.120600001886,,22224.188499967568,21366.409600013867,Extended template,0,0.0493999104946851,2,yes,1024
0,0,0.0234999849150578,0.0234999849150578,white,yes,psycho,psycho,psycho,0,uniform,0,undefined,0,a,1,0,2,0,0,0,0,0,0,,2,0,2,2,0,2,0,2,2,Sat Dec  2 17:32:21 2023,A template containing a practice and an experimental phase,yes,언어학과심리실험_B조_기말과제용심리실험.osexp,C:\Users\caphi\Downloads,no,mono,no,18,no,black,no,no,768,psycho,2,2,0,C:\Users\caphi\Downloads\quickrun.csv,psycho,Lentiform Loewenfeld,3.3.14,yes,교통,artifactual,inclusive,0,None,,,,s,None,a,0.0211000442504882,,,,7848.357099923305,0.0211000442504882,388.4228999959305,2,psycho,1024,2,48000,-16,experiment,999,odd,자동차,artifactual,,23907.949300017208,17109.762600040995,17109.656899934635,,,9185.249499976637,,,23177.545199985616,9260.003600036724,24413.44929998741,24413.569999975152,17109.145599999465,23390.664399950765,,24024.33619997464,23158.08730002027,Extended template,0,0.0704999547451734,3,yes,1024
0,0,0.0257999636232852,0.0257999636232852,white,yes,psycho,psycho,psycho,0,uniform,0,undefined,0,a,0,0,3,1,1,0,0,0,0,,3,0,3,3,0,3,1,3,3,Sat Dec  2 17:32:21 2023,A template containing a practice and an experimental phase,yes,언어학과심리실험_B조_기말과제용심리실험.osexp,C:\Users\caphi\Downloads,no,mono,no,18,no,black,no,no,768,psycho,0,0,0,C:\Users\caphi\Downloads\quickrun.csv,psycho,Lentiform Loewenfeld,3.3.14,no,불,natural,similar-environmental,0,None,,a,,s,None,n,0.0257999636232852,,1139.3117000116035,,7848.357099923305,0.0257999636232852,405.2068999735639,2,psycho,1024,2,48000,-16,experiment,999,odd,소화기,artifactual,,26491.48860003333,25702.940699993636,25702.83660001587,,24561.58440001309,9185.249499976637,25702.25870003924,,25758.288700017147,9260.003600036724,27013.653600006364,27013.796599931084,17109.145599999465,25974.600499961525,,26607.726000016555,25739.702499937262,Extended template,0,0.0257999636232852,1,yes,1024
0,0,0.0233000027947127,0.0233000027947127,white,yes,psycho,psycho,psycho,0,uniform,0,undefined,0,a,0,0,4,1,1,0,0,0,0,,4,0,4,4,0,4,1,4,4,Sat Dec  2 17:32:21 2023,A template containing a practice and an experimental phase,yes,언어학과심리실험_B조_기말과제용심리실험.osexp,C:\Users\caphi\Downloads,no,mono,no,18,no,black,no,no,768,psycho,1,1,0,C:\Users\caphi\Downloads\quickrun.csv,psycho,Lentiform Loewenfeld,3.3.14,no,과일,natural,no-correlation,0,None,,a,,s,None,n,0.0208000419661402,,1139.3117000116035,,7848.357099923305,0.0208000419661402,949.5334000093862,2,psycho,1024,2,48000,-16,experiment,999,odd,가방,artifactual,,27874.82259992976,25702.940699993636,25702.83660001587,,24561.58440001309,9185.249499976637,25702.25870003924,,27141.62679994479,9260.003600036724,28941.365399979983,28941.499499953352,17109.145599999465,27357.67980001401,,27991.20079993736,27115.618699928746,Extended template,0,0.0466000055894255,2,yes,1024
0,0,0.0226333116491635,0.0226333116491635,white,yes,psycho,psycho,psycho,0,uniform,0,undefined,0,n,1,0,5,1,1,0,0,0,0,,5,0,5,5,0,5,1,5,5,Sat Dec  2 17:32:21 2023,A template containing a practice and an experimental phase,yes,언어학과심리실험_B조_기말과제용심리실험.osexp,C:\Users\caphi\Downloads,no,mono,no,18,no,black,no,no,768,psycho,2,2,0,C:\Users\caphi\Downloads\quickrun.csv,psycho,Lentiform Loewenfeld,3.3.14,no,언덕,natural,no-correlation,0,None,,a,,s,None,n,0.0212999293580651,,1139.3117000116035,,7848.357099923305,0.0212999293580651,1856.3598999753597,2,psycho,1024,2,48000,-16,experiment,999,odd,고양이,natural,,29791.00800002925,25702.940699993636,25702.83660001587,,24561.58440001309,9185.249499976637,25702.25870003924,,29060.333500034176,9260.003600036724,31765.38100000471,31765.509399934672,17109.145599999465,29274.65060004033,,29908.34249998443,29045.58849998284,Extended template,0,0.0678999349474906,3,yes,1024
0,0,0.0242999813053756,0.0242999813053756,white,yes,psycho,psycho,psycho,0,uniform,0,undefined,0,n,1,0,6,1,1,0,0,0,0,,6,0,6,6,0,6,1,6,6,Sat Dec  2 17:32:21 2023,A template containing a practice and an experimental phase,yes,언어학과심리실험_B조_기말과제용심리실험.osexp,C:\Users\caphi\Downloads,no,mono,no,18,no,black,no,no,768,psycho,3,3,0,C:\Users\caphi\Downloads\quickrun.csv,psycho,Lentiform Loewenfeld,3.3.14,no,꽃,natural,inclusive,0,None,,a,,s,None,n,0.029299990274012,,1139.3117000116035,,7848.357099923305,0.029299990274012,799.2347000399604,2,psycho,1024,2,48000,-16,experiment,999,odd,해바라기,natural,,32624.67699998524,25702.940699993636,25702.83660001587,,24561.58440001309,9185.249499976637,25702.25870003924,,31894.456599955447,9260.003600036724,33541.818500030786,33541.9609999517,17109.145599999465,32107.88170003798,,32741.81239993777,31873.51830000989,Extended template,0,0.0971999252215027,4,yes,1024
0,0,0.0237599946558475,0.0237599946558475,white,yes,psycho,psycho,psycho,0,uniform,0,undefined,0,a,1,0,7,1,1,0,0,0,0,,7,0,7,7,0,7,1,7,7,Sat Dec  2 17:32:21 2023,A template containing a practice and an experimental phase,yes,언어학과심리실험_B조_기말과제용심리실험.osexp,C:\Users\caphi\Downloads,no,mono,no,18,no,black,no,no,768,psycho,4,4,0,C:\Users\caphi\Downloads\quickrun.csv,psycho,Lentiform Loewenfeld,3.3.14,no,학교,artifactual,inclusive,0,None,,a,,s,None,a,0.0216000480577349,,1139.3117000116035,,7848.357099923305,0.0216000480577349,1137.0028000092134,2,psycho,1024,2,48000,-16,experiment,999,odd,학생,artifactual,,34392.35690003261,25702.940699993636,25702.83660001587,,24561.58440001309,9185.249499976637,25702.25870003924,,33661.37859993614,9260.003600036724,35645.832199952565,35645.970699959435,17109.145599999465,33883.00559995696,,34507.91419995949,33643.77179997973,Extended template,0,0.1187999732792377,5,yes,1024
0,0,0.0235500046983361,0.0235500046983361,white,yes,psycho,psycho,psycho,0,uniform,0,undefined,0,a,1,0,8,1,1,0,0,0,0,,8,0,8,8,0,8,1,8,8,Sat Dec  2 17:32:21 2023,A template containing a practice and an experimental phase,yes,언어학과심리실험_B조_기말과제용심리실험.osexp,C:\Users\caphi\Downloads,no,mono,no,18,no,black,no,no,768,psycho,5,5,0,C:\Users\caphi\Downloads\quickrun.csv,psycho,Lentiform Loewenfeld,3.3.14,no,영화,artifactual,similar-environmental,0,None,,a,,s,None,a,0.022500054910779,,1139.3117000116035,,7848.357099923305,0.022500054910779,956.8106000078842,2,psycho,1024,2,48000,-16,experiment,999,odd,드라마,artifactual,,36491.63940001745,25702.940699993636,25702.83660001587,,24561.58440001309,9185.249499976637,25702.25870003924,,35761.27140002791,9260.003600036724,37566.054999944754,37566.20190001559,17109.145599999465,35975.22130003199,,36608.40619995725,35747.07669997588,Extended template,0,0.1413000281900167,6,yes,1024
0,0,0.0237999982865793,0.0237999982865793,white,yes,psycho,psycho,psycho,0,uniform,0,undefined,0,n,1,0,9,1,1,0,0,0,0,,9,0,9,9,0,9,1,9,9,Sat Dec  2 17:32:21 2023,A template containing a practice and an experimental phase,yes,언어학과심리실험_B조_기말과제용심리실험.osexp,C:\Users\caphi\Downloads,no,mono,no,18,no,black,no,no,768,psycho,6,6,0,C:\Users\caphi\Downloads\quickrun.csv,psycho,Lentiform Loewenfeld,3.3.14,no,불,natural,no-correlation,0,None,,a,,s,None,n,0.0252999598160386,,1139.3117000116035,,7848.357099923305,0.0252999598160386,2551.9074999028817,2,psycho,1024,2,48000,-16,experiment,999,odd,물고기,natural,,38408.729600021616,25702.940699993636,25702.83660001587,,24561.58440001309,9185.249499976637,25702.25870003924,,37677.02169995755,9260.003600036724,41077.740799984895,41077.91769993492,17109.145599999465,37891.80849993136,,38524.91080004256,37666.19010001887,Extended template,0,0.1665999880060553,7,yes,1024
0,0,0.0235249899560585,0.0235249899560585,white,yes,psycho,psycho,psycho,0,uniform,0,undefined,0,a,1,0,10,1,1,0,0,0,0,,10,0,10,10,0,10,1,10,10,Sat Dec  2 17:32:21 2023,A template containing a practice and an experimental phase,yes,언어학과심리실험_B조_기말과제용심리실험.osexp,C:\Users\caphi\Downloads,no,mono,no,18,no,black,no,no,768,psycho,7,7,0,C:\Users\caphi\Downloads\quickrun.csv,psycho,Lentiform Loewenfeld,3.3.14,no,호수,natural,no-correlation,0,None,,a,,s,None,a,0.0215999316424131,,1139.3117000116035,,7848.357099923305,0.0215999316424131,1995.7313999766484,2,psycho,1024,2,48000,-16,experiment,999,odd,대학교,artifactual,,41925.14039995149,25702.940699993636,25702.83660001587,,24561.58440001309,9185.249499976637,25702.25870003924,,41194.847099948674,9260.003600036724,44038.23710000143,44038.39030000381,17109.145599999465,41408.51139998995,,42041.811599978246,41179.29260001984,Extended template,0,0.1881999196484685,8,yes,1024
0,0,0.023322218718628,0.023322218718628,white,yes,psycho,psycho,psycho,0,uniform,0,undefined,0,x,1,0,11,1,1,0,0,0,0,,11,0,11,11,0,11,1,11,11,Sat Dec  2 17:32:21 2023,A template containing a practice and an experimental phase,yes,언어학과심리실험_B조_기말과제용심리실험.osexp,C:\Users\caphi\Downloads,no,mono,no,18,no,black,no,no,768,psycho,8,8,0,C:\Users\caphi\Downloads\quickrun.csv,psycho,Lentiform Loewenfeld,3.3.14,no,벨트,artifactual,non-word,0,None,,a,,s,None,x,0.0217000488191843,,1139.3117000116035,,7848.357099923305,0.0217000488191843,1388.6400000192225,2,psycho,1024,2,48000,-16,experiment,999,odd,진웬,non-word,,44892.59399997536,25702.940699993636,25702.83660001587,,24561.58440001309,9185.249499976637,25702.25870003924,,44162.35530003905,9260.003600036724,46398.0630999431,46398.223600001074,17109.145599999465,44375.362499966286,,45008.70699994266,44136.584199965,Extended template,0,0.2098999684676528,9,yes,1024
0,0,0.0235500046983361,0.0235500046983361,white,yes,psycho,psycho,psycho,0,uniform,0,undefined,0,n,1,0,12,1,1,0,0,0,0,,12,0,12,12,0,12,1,12,12,Sat Dec  2 17:32:21 2023,A template containing a practice and an experimental phase,yes,언어학과심리실험_B조_기말과제용심리실험.osexp,C:\Users\caphi\Downloads,no,mono,no,18,no,black,no,no,768,psycho,9,9,0,C:\Users\caphi\Downloads\quickrun.csv,psycho,Lentiform Loewenfeld,3.3.14,no,물고기,natural,inclusive,0,None,,a,,s,None,n,0.0256000785157084,,1139.3117000116035,,7848.357099923305,0.0256000785157084,1071.079000015743,2,psycho,1024,2,48000,-16,experiment,999,odd,연어,natural,,47242.62529995758,25702.940699993636,25702.83660001587,,24561.58440001309,9185.249499976637,25702.25870003924,,46511.35659997817,9260.003600036724,48430.24499993771,48430.44779996853,17109.145599999465,46726.195299997926,,47358.42900001444,46500.007699942216,Extended template,0,0.2355000469833612,10,yes,1024
0,0,0.0236727276139638,0.0236727276139638,white,yes,psycho,psycho,psycho,0,uniform,0,undefined,0,n,1,0,13,1,1,0,0,0,0,,13,0,13,13,0,13,1,13,13,Sat Dec  2 17:32:21 2023,A template containing a practice and an experimental phase,yes,언어학과심리실험_B조_기말과제용심리실험.osexp,C:\Users\caphi\Downloads,no,mono,no,18,no,black,no,no,768,psycho,10,10,0,C:\Users\caphi\Downloads\quickrun.csv,psycho,Lentiform Loewenfeld,3.3.14,no,경주,artifactual,no-correlation,0,None,,a,,s,None,n,0.0248999567702412,,1139.3117000116035,,7848.357099923305,0.0248999567702412,957.764699938707,2,psycho,1024,2,48000,-16,experiment,999,odd,소나무,natural,,49275.10660002008,25702.940699993636,25702.83660001587,,24561.58440001309,9185.249499976637,25702.25870003924,,48544.36499997973,9260.003600036724,50350.73970002122,50350.95640004147,17109.145599999465,48759.02370002586,,49392.0348000247,48532.03490003944,Extended template,0,0.2604000037536025,11,yes,1024
0,0,0.0238166636942575,0.0238166636942575,white,yes,psycho,psycho,psycho,0,uniform,0,undefined,0,n,1,0,14,1,1,0,0,0,0,,14,0,14,14,0,14,1,14,14,Sat Dec  2 17:32:21 2023,A template containing a practice and an experimental phase,yes,언어학과심리실험_B조_기말과제용심리실험.osexp,C:\Users\caphi\Downloads,no,mono,no,18,no,black,no,no,768,psycho,11,11,0,C:\Users\caphi\Downloads\quickrun.csv,psycho,Lentiform Loewenfeld,3.3.14,no,오일,natural,same phoneme,0,None,,a,,s,None,n,0.0253999605774879,,1139.3117000116035,,7848.357099923305,0.0253999605774879,2368.688900023699,2,psycho,1024,2,48000,-16,experiment,999,odd,오리,natural,,51192.28620000649,25702.940699993636,25702.83660001587,,24561.58440001309,9185.249499976637,25702.25870003924,,50460.57560003828,9260.003600036724,53678.49369999021,53678.69440000504,17109.145599999465,50674.89879997447,,51308.79889999051,50452.28950004093,Extended template,0,0.2857999643310904,12,yes,1024
0,0,0.023961541816019,0.023961541816019,white,yes,psycho,psycho,psycho,0,uniform,0,undefined,0,a,1,0,15,1,1,0,0,0,0,,15,0,15,15,0,15,1,15,15,Sat Dec  2 17:32:21 2023,A template containing a practice and an experimental phase,yes,언어학과심리실험_B조_기말과제용심리실험.osexp,C:\Users\caphi\Downloads,no,mono,no,18,no,black,no,no,768,psycho,12,12,0,C:\Users\caphi\Downloads\quickrun.csv,psycho,Lentiform Loewenfeld,3.3.14,no,꽃,natural,no-correlation,0,None,,a,,s,None,a,0.0257000792771577,,1139.3117000116035,,7848.357099923305,0.0257000792771577,1739.584199967794,2,psycho,1024,2,48000,-16,experiment,999,odd,경주,artifactual,,54525.29130002949,25702.940699993636,25702.83660001587,,24561.58440001309,9185.249499976637,25702.25870003924,,53794.07399997581,9260.003600036724,56382.728199940175,56383.008099976,17109.145599999465,54009.12129995413,,54642.342400038615,53776.1737999972,Extended template,0,0.3115000436082482,13,yes,1024
0,0,0.0237357203981706,0.0237357203981706,white,yes,psycho,psycho,psycho,0,uniform,0,undefined,0,a,1,0,16,1,1,0,0,0,0,,16,0,16,16,0,16,1,16,16,Sat Dec  2 17:32:21 2023,A template containing a practice and an experimental phase,yes,언어학과심리실험_B조_기말과제용심리실험.osexp,C:\Users\caphi\Downloads,no,mono,no,18,no,black,no,no,768,psycho,13,13,0,C:\Users\caphi\Downloads\quickrun.csv,psycho,Lentiform Loewenfeld,3.3.14,no,로켓,artifactual,same phoneme,0,None,,a,,s,None,a,0.0208000419661402,,1139.3117000116035,,7848.357099923305,0.0208000419661402,735.731799970381,2,psycho,1024,2,48000,-16,experiment,999,odd,로봇,artifactual,,57226.74219997134,25702.940699993636,25702.83660001587,,24561.58440001309,9185.249499976637,25702.25870003924,,56494.78089995682,9260.003600036724,58078.21409997996,58078.39389995206,17109.145599999465,56708.68099993095,,57341.84080001432,56480.46979994979,Extended template,0,0.3323000855743885,14,yes,1024
0,0,0.0238000027214487,0.0238000027214487,white,yes,psycho,psycho,psycho,0,uniform,0,undefined,0,a,1,0,17,1,1,0,0,0,0,,17,0,17,17,0,17,1,17,17,Sat Dec  2 17:32:21 2023,A template containing a practice and an experimental phase,yes,언어학과심리실험_B조_기말과제용심리실험.osexp,C:\Users\caphi\Downloads,no,mono,no,18,no,black,no,no,768,psycho,14,14,0,C:\Users\caphi\Downloads\quickrun.csv,psycho,Lentiform Loewenfeld,3.3.14,no,종이,artifactual,similar-environmental,0,None,,a,,s,None,a,0.0246999552473425,,1139.3117000116035,,7848.357099923305,0.0246999552473425,587.0116000296548,2,psycho,1024,2,48000,-16,experiment,999,odd,프린터,artifactual,,58943.06439999491,25702.940699993636,25702.83660001587,,24561.58440001309,9185.249499976637,25702.25870003924,,58212.03990001232,9260.003600036724,59646.81529998779,59647.04750000965,17109.145599999465,58425.8414999349,,59058.93409997225,58187.98039993271,Extended template,0,0.3570000408217311,15,yes,1024
0,0,0.0239062501350417,0.0239062501350417,white,yes,psycho,psycho,psycho,0,uniform,0,undefined,0,a,1,0,18,1,1,0,0,0,0,,18,0,18,18,0,18,1,18,18,Sat Dec  2 17:32:21 2023,A template containing a practice and an experimental phase,yes,언어학과심리실험_B조_기말과제용심리실험.osexp,C:\Users\caphi\Downloads,no,mono,no,18,no,black,no,no,768,psycho,15,15,0,C:\Users\caphi\Downloads\quickrun.csv,psycho,Lentiform Loewenfeld,3.3.14,no,꽃,natural,no-correlation,0,None,,a,,s,None,a,0.0254999613389372,,1139.3117000116035,,7848.357099923305,0.0254999613389372,3012.8213999560103,2,psycho,1024,2,48000,-16,experiment,999,odd,풍차,artifactual,,60492.80579993501,25702.940699993636,25702.83660001587,,24561.58440001309,9185.249499976637,25702.25870003924,,59761.858899961226,9260.003600036724,63622.73589998949,63622.96139996033,17109.145599999465,59975.93650000636,,60608.91529999208,59748.75469994731,Extended template,0,0.3825000021606684,16,yes,1024
0,0,0.0240882338189026,0.0240882338189026,white,yes,psycho,psycho,psycho,0,uniform,0,undefined,0,n,1,0,19,1,1,0,0,0,0,,19,0,19,19,0,19,1,19,19,Sat Dec  2 17:32:21 2023,A template containing a practice and an experimental phase,yes,언어학과심리실험_B조_기말과제용심리실험.osexp,C:\Users\caphi\Downloads,no,mono,no,18,no,black,no,no,768,psycho,16,16,0,C:\Users\caphi\Downloads\quickrun.csv,psycho,Lentiform Loewenfeld,3.3.14,no,다리,artifactual,similar-environmental,0,None,,a,,s,None,n,0.0269999727606773,,1139.3117000116035,,7848.357099923305,0.0269999727606773,748.9850000711158,2,psycho,1024,2,48000,-16,experiment,999,odd,강,natural,,64475.80879996531,25702.940699993636,25702.83660001587,,24561.58440001309,9185.249499976637,25702.25870003924,,63744.45600004401,9260.003600036724,65342.69099996891,65342.95500000008,17109.145599999465,63958.82159995381,,64592.856999952346,63724.24699994736,Extended template,0,0.4094999749213457,17,yes,1024
0,0,0.0239833348637653,0.0239833348637653,white,yes,psycho,psycho,psycho,0,uniform,0,undefined,0,n,1,0,20,1,1,0,0,0,0,,20,0,20,20,0,20,1,20,20,Sat Dec  2 17:32:21 2023,A template containing a practice and an experimental phase,yes,언어학과심리실험_B조_기말과제용심리실험.osexp,C:\Users\caphi\Downloads,no,mono,no,18,no,black,no,no,768,psycho,17,17,0,C:\Users\caphi\Downloads\quickrun.csv,psycho,Lentiform Loewenfeld,3.3.14,no,풍차,artifactual,no-correlation,0,None,,a,,s,None,n,0.0222000526264309,,1139.3117000116035,,7848.357099923305,0.0222000526264309,696.3169999653473,2,psycho,1024,2,48000,-16,experiment,999,odd,흙,natural,,66193.18149995524,25702.940699993636,25702.83660001587,,24561.58440001309,9185.249499976637,25702.25870003924,,65462.29129994754,9260.003600036724,67006.61669997498,67006.82380003855,17109.145599999465,65675.81269994844,,66309.2697999673,65446.83519995306,Extended template,0,0.4317000275477767,18,yes,1024
0,0,0.0240842101017111,0.0240842101017111,white,yes,psycho,psycho,psycho,0,uniform,0,undefined,0,n,1,0,21,1,1,0,0,0,0,,21,0,21,21,0,21,1,21,21,Sat Dec  2 17:32:21 2023,A template containing a practice and an experimental phase,yes,언어학과심리실험_B조_기말과제용심리실험.osexp,C:\Users\caphi\Downloads,no,mono,no,18,no,black,no,no,768,psycho,18,18,0,C:\Users\caphi\Downloads\quickrun.csv,psycho,Lentiform Loewenfeld,3.3.14,no,박쥐,natural,similar-environmental,0,None,,a,,s,None,n,0.0258999643847346,,1139.3117000116035,,7848.357099923305,0.0258999643847346,686.2868999596685,2,psycho,1024,2,48000,-16,experiment,999,odd,동굴,natural,,67859.31910004001,25702.940699993636,25702.83660001587,,24561.58440001309,9185.249499976637,25702.25870003924,,67128.48459999077,9260.003600036724,68662.65990003012,68662.88830002304,17109.145599999465,67341.85149997938,,67975.4924000008,67108.99969993625,Extended template,0,0.4575999919325113,19,yes,1024
0,0,0.0244900002144277,0.0244900002144277,white,yes,psycho,psycho,psycho,0,uniform,0,undefined,0,n,1,0,22,1,1,0,0,0,0,,22,0,22,22,0,22,1,22,22,Sat Dec  2 17:32:21 2023,A template containing a practice and an experimental phase,yes,언어학과심리실험_B조_기말과제용심리실험.osexp,C:\Users\caphi\Downloads,no,mono,no,18,no,black,no,no,768,psycho,19,19,0,C:\Users\caphi\Downloads\quickrun.csv,psycho,Lentiform Loewenfeld,3.3.14,no,의자,artifactual,no-correlation,0,None,,a,,s,None,n,0.0322000123560428,,1139.3117000116035,,7848.357099923305,0.0322000123560428,1228.4500999376178,2,psycho,1024,2,48000,-16,experiment,999,odd,행성,natural,,69509.45889996365,25702.940699993636,25702.83660001587,,24561.58440001309,9185.249499976637,25702.25870003924,,68778.63169996999,9260.003600036724,70854.92209997028,70855.22339993622,17109.145599999465,68992.21930000931,,69625.64560002647,68767.55059999414,Extended template,0,0.4898000042885542,20,yes,1024
0,0,0.0244285745014037,0.0244285745014037,white,yes,psycho,psycho,psycho,0,uniform,0,undefined,0,n,1,0,23,1,1,0,0,0,0,,23,0,23,23,0,23,1,23,23,Sat Dec  2 17:32:21 2023,A template containing a practice and an experimental phase,yes,언어학과심리실험_B조_기말과제용심리실험.osexp,C:\Users\caphi\Downloads,no,mono,no,18,no,black,no,no,768,psycho,20,20,0,C:\Users\caphi\Downloads\quickrun.csv,psycho,Lentiform Loewenfeld,3.3.14,no,동굴,natural,similar-environmental,0,None,,a,,s,None,n,0.0232000602409243,,1139.3117000116035,,7848.357099923305,0.0232000602409243,675.9802999440581,2,psycho,1024,2,48000,-16,experiment,999,odd,박쥐,natural,,71709.7184000304,25702.940699993636,25702.83660001587,,24561.58440001309,9185.249499976637,25702.25870003924,,70979.55940000247,9260.003600036724,72502.63729994185,72502.86579993553,17109.145599999465,71192.74910003878,,71825.78670000657,70958.68519996293,Extended template,0,0.5130000645294785,21,yes,1024
0,0,0.0244318190115419,0.0244318190115419,white,yes,psycho,psycho,psycho,0,uniform,0,undefined,0,n,1,0,24,1,1,0,0,0,0,,24,0,24,24,0,24,1,24,24,Sat Dec  2 17:32:21 2023,A template containing a practice and an experimental phase,yes,언어학과심리실험_B조_기말과제용심리실험.osexp,C:\Users\caphi\Downloads,no,mono,no,18,no,black,no,no,768,psycho,21,21,0,C:\Users\caphi\Downloads\quickrun.csv,psycho,Lentiform Loewenfeld,3.3.14,no,바닥,artifactual,same phoneme,0,None,,a,,s,None,n,0.0244999537244439,,1139.3117000116035,,7848.357099923305,0.0244999537244439,657.5836000265554,2,psycho,1024,2,48000,-16,experiment,999,odd,바다,natural,,73359.3023000285,25702.940699993636,25702.83660001587,,24561.58440001309,9185.249499976637,25702.25870003924,,72629.76000003982,9260.003600036724,74134.61810001172,74134.88969998434,17109.145599999465,72843.00779993646,,73476.10580001492,72603.51389995776,Extended template,0,0.5375000182539225,22,yes,1024
0,0,0.0242695627410126,0.0242695627410126,white,yes,psycho,psycho,psycho,0,uniform,0,undefined,0,a,1,0,25,1,1,0,0,0,0,,25,0,25,25,0,25,1,25,25,Sat Dec  2 17:32:21 2023,A template containing a practice and an experimental phase,yes,언어학과심리실험_B조_기말과제용심리실험.osexp,C:\Users\caphi\Downloads,no,mono,no,18,no,black,no,no,768,psycho,22,22,0,C:\Users\caphi\Downloads\quickrun.csv,psycho,Lentiform Loewenfeld,3.3.14,no,화분,artifactual,no-correlation,0,None,,a,,s,None,a,0.0206999247893691,,1139.3117000116035,,7848.357099923305,0.0206999247893691,544.9964000144973,2,psycho,1024,2,48000,-16,experiment,999,odd,신발,artifactual,,74976.09719994944,25702.940699993636,25702.83660001587,,24561.58440001309,9185.249499976637,25702.25870003924,,74244.88360004034,9260.003600036724,75638.96070001647,75639.18729999568,17109.145599999465,74459.15080001578,,75093.18590001203,74236.36159999296,Extended template,0,0.5581999430432916,23,yes,1024
0,0,0.0245958314432452,0.0245958314432452,white,yes,psycho,psycho,psycho,0,uniform,0,undefined,0,n,1,0,26,1,1,0,0,0,0,,26,0,26,26,0,26,1,26,26,Sat Dec  2 17:32:21 2023,A template containing a practice and an experimental phase,yes,언어학과심리실험_B조_기말과제용심리실험.osexp,C:\Users\caphi\Downloads,no,mono,no,18,no,black,no,no,768,psycho,23,23,0,C:\Users\caphi\Downloads\quickrun.csv,psycho,Lentiform Loewenfeld,3.3.14,no,새,natural,inclusive,0,None,,a,,s,None,n,0.0321000115945935,,1139.3117000116035,,7848.357099923305,0.0321000115945935,669.104199972935,2,psycho,1024,2,48000,-16,experiment,999,odd,까치,natural,,76492.98470001668,25702.940699993636,25702.83660001587,,24561.58440001309,9185.249499976637,25702.25870003924,,75762.12960004341,9260.003600036724,77279.55660002772,77279.8009000253,17109.145599999465,75975.99960002117,,76608.9031000156,75746.26359995455,Extended template,0,0.5902999546378851,24,yes,1024
0,0,0.0248519983142614,0.0248519983142614,white,yes,psycho,psycho,psycho,0,uniform,0,undefined,0,n,1,0,27,1,1,0,0,0,0,,27,0,27,27,0,27,1,27,27,Sat Dec  2 17:32:21 2023,A template containing a practice and an experimental phase,yes,언어학과심리실험_B조_기말과제용심리실험.osexp,C:\Users\caphi\Downloads,no,mono,no,18,no,black,no,no,768,psycho,24,24,0,C:\Users\caphi\Downloads\quickrun.csv,psycho,Lentiform Loewenfeld,3.3.14,no,항구,artifactual,similar-environmental,0,None,,a,,s,None,n,0.0310000032186508,,1139.3117000116035,,7848.357099923305,0.0310000032186508,531.4472999889404,2,psycho,1024,2,48000,-16,experiment,999,odd,바다,natural,,78143.34830001462,25702.940699993636,25702.83660001587,,24561.58440001309,9185.249499976637,25702.25870003924,,77412.65119996388,9260.003600036724,78791.56109993346,78791.81039996911,17109.145599999465,77626.10480003059,,78259.22929996159,77392.29680004064,Extended template,0,0.6212999578565359,25,yes,1024
0,0,0.0247307650100153,0.0247307650100153,white,yes,psycho,psycho,psycho,0,uniform,0,undefined,0,n,1,0,28,1,1,0,0,0,0,,28,0,28,28,0,28,1,28,28,Sat Dec  2 17:32:21 2023,A template containing a practice and an experimental phase,yes,언어학과심리실험_B조_기말과제용심리실험.osexp,C:\Users\caphi\Downloads,no,mono,no,18,no,black,no,no,768,psycho,25,25,0,C:\Users\caphi\Downloads\quickrun.csv,psycho,Lentiform Loewenfeld,3.3.14,no,전구,artifactual,similar-environmental,0,None,,a,,s,None,n,0.0216999324038624,,1139.3117000116035,,7848.357099923305,0.0216999324038624,1382.671800092794,2,psycho,1024,2,48000,-16,experiment,999,odd,빛,natural,,79643.37619999424,25702.940699993636,25702.83660001587,,24561.58440001309,9185.249499976637,25702.25870003924,,78912.12779993657,9260.003600036724,81142.66400004271,81142.91279995814,17109.145599999465,79125.72260003071,,79759.08819993492,78895.03230003174,Extended template,0,0.6429998902603984,26,yes,1024
0,0,0.0248592545243876,0.0248592545243876,white,yes,psycho,psycho,psycho,0,uniform,0,undefined,0,a,1,0,29,1,1,0,0,0,0,,29,0,29,29,0,29,1,29,29,Sat Dec  2 17:32:21 2023,A template containing a practice and an experimental phase,yes,언어학과심리실험_B조_기말과제용심리실험.osexp,C:\Users\caphi\Downloads,no,mono,no,18,no,black,no,no,768,psycho,26,26,0,C:\Users\caphi\Downloads\quickrun.csv,psycho,Lentiform Loewenfeld,3.3.14,no,기계,artifactual,inclusive,0,None,,a,,s,None,a,0.0281999818980693,,1139.3117000116035,,7848.357099923305,0.0281999818980693,712.6437000697479,2,psycho,1024,2,48000,-16,experiment,999,odd,컴퓨터,artifactual,,81992.88279993925,25702.940699993636,25702.83660001587,,24561.58440001309,9185.249499976637,25702.25870003924,,81262.16189994011,9260.003600036724,82823.0329999933,82823.36759997997,17109.145599999465,81476.40529996715,,82109.38199993689,81244.83700003475,Extended template,0,0.6711998721584678,27,yes,1024
0,0,0.0247928546741604,0.0247928546741604,white,yes,psycho,psycho,psycho,0,uniform,0,undefined,0,n,1,0,30,1,1,0,0,0,0,,30,0,30,30,0,30,1,30,30,Sat Dec  2 17:32:21 2023,A template containing a practice and an experimental phase,yes,언어학과심리실험_B조_기말과제용심리실험.osexp,C:\Users\caphi\Downloads,no,mono,no,18,no,black,no,no,768,psycho,27,27,0,C:\Users\caphi\Downloads\quickrun.csv,psycho,Lentiform Loewenfeld,3.3.14,no,물고기,natural,no-correlation,0,None,,a,,s,None,n,0.0230000587180256,,1139.3117000116035,,7848.357099923305,0.0230000587180256,756.7778000375256,2,psycho,1024,2,48000,-16,experiment,999,odd,밤하늘,natural,,83692.69169995096,25702.940699993636,25702.83660001587,,24561.58440001309,9185.249499976637,25702.25870003924,,82961.86060004402,9260.003600036724,84566.85489998199,84567.11709999945,17109.145599999465,83175.8669000119,,83809.1913999524,82944.13620000705,Extended template,0,0.6941999308764935,28,yes,1024
0,0,0.024996549372786,0.024996549372786,white,yes,psycho,psycho,psycho,0,uniform,0,undefined,0,n,1,0,31,1,1,0,0,0,0,,31,0,31,31,0,31,1,31,31,Sat Dec  2 17:32:21 2023,A template containing a practice and an experimental phase,yes,언어학과심리실험_B조_기말과제용심리실험.osexp,C:\Users\caphi\Downloads,no,mono,no,18,no,black,no,no,768,psycho,28,28,0,C:\Users\caphi\Downloads\quickrun.csv,psycho,Lentiform Loewenfeld,3.3.14,no,장슈,non-word,non-word,0,None,,a,,s,None,n,0.0307000009343028,,1139.3117000116035,,7848.357099923305,0.0307000009343028,2687.884400016628,2,psycho,1024,2,48000,-16,experiment,999,odd,다람쥐,natural,,85409.1586000286,25702.940699993636,25702.83660001587,,24561.58440001309,9185.249499976637,25702.25870003924,,84678.34690003656,9260.003600036724,88215.21129994653,88215.49979993142,17109.145599999465,84892.64299999923,,85526.4712999342,84670.09419994429,Extended template,0,0.7248999318107963,29,yes,1024
0,0,0.0249899962606529,0.0249899962606529,white,yes,psycho,psycho,psycho,0,uniform,0,undefined,0,a,1,0,32,1,1,0,0,0,0,,32,0,32,32,0,32,1,32,32,Sat Dec  2 17:32:21 2023,A template containing a practice and an experimental phase,yes,언어학과심리실험_B조_기말과제용심리실험.osexp,C:\Users\caphi\Downloads,no,mono,no,18,no,black,no,no,768,psycho,29,29,0,C:\Users\caphi\Downloads\quickrun.csv,psycho,Lentiform Loewenfeld,3.3.14,no,눈,natural,similar-environmental,0,None,,a,,s,None,a,0.0247999560087919,,1139.3117000116035,,7848.357099923305,0.0247999560087919,1189.9688999401403,2,psycho,1024,2,48000,-16,experiment,999,odd,스키,artifactual,,89059.21009997837,25702.940699993636,25702.83660001587,,24561.58440001309,9185.249499976637,25702.25870003924,,88328.45479995012,9260.003600036724,90367.08410002755,90367.3738000216,17109.145599999465,88543.28089999035,,89176.2172000017,88318.42060002964,Extended template,0,0.7496998878195882,30,yes,1024
0,0,0.0250580600432811,0.0250580600432811,white,yes,psycho,psycho,psycho,0,uniform,0,undefined,0,n,1,0,33,1,1,0,0,0,0,,33,0,33,33,0,33,1,33,33,Sat Dec  2 17:32:21 2023,A template containing a practice and an experimental phase,yes,언어학과심리실험_B조_기말과제용심리실험.osexp,C:\Users\caphi\Downloads,no,mono,no,18,no,black,no,no,768,psycho,30,30,0,C:\Users\caphi\Downloads\quickrun.csv,psycho,Lentiform Loewenfeld,3.3.14,no,세금,artifactual,same phoneme,0,None,,a,,s,None,n,0.0270999735221266,,1139.3117000116035,,7848.357099923305,0.0270999735221266,972.6447999710216,2,psycho,1024,2,48000,-16,experiment,999,odd,세포,natural,,91226.08109994326,25702.940699993636,25702.83660001587,,24561.58440001309,9185.249499976637,25702.25870003924,,90495.6604000181,9260.003600036724,92319.17659996545,92319.51930001378,17109.145599999465,90709.52609996311,,91345.53920000326,90463.65779999178,Extended template,0,0.7767998613417149,31,yes,1024
0,0,0.0249624972639139,0.0249624972639139,white,yes,psycho,psycho,psycho,0,uniform,0,undefined,0,n,1,0,34,1,1,0,0,0,0,,34,0,34,34,0,34,1,34,34,Sat Dec  2 17:32:21 2023,A template containing a practice and an experimental phase,yes,언어학과심리실험_B조_기말과제용심리실험.osexp,C:\Users\caphi\Downloads,no,mono,no,18,no,black,no,no,768,psycho,31,31,0,C:\Users\caphi\Downloads\quickrun.csv,psycho,Lentiform Loewenfeld,3.3.14,no,우산,artifactual,similar-environmental,0,None,,a,,s,None,n,0.0220000511035323,,1139.3117000116035,,7848.357099923305,0.0220000511035323,626.9473000429571,2,psycho,1024,2,48000,-16,experiment,999,odd,비,natural,,93159.36579997651,25702.940699993636,25702.83660001587,,24561.58440001309,9185.249499976637,25702.25870003924,,92429.04760001691,9260.003600036724,93903.94969994668,93904.25190003587,17109.145599999465,92642.94709998649,,93276.04839997366,92417.36459999812,Extended template,0,0.7987999124452472,32,yes,1024
0,0,0.0248666655159357,0.0248666655159357,white,yes,psycho,psycho,psycho,0,uniform,0,undefined,0,a,0,0,35,1,1,0,0,0,0,,35,0,35,35,0,35,1,35,35,Sat Dec  2 17:32:21 2023,A template containing a practice and an experimental phase,yes,언어학과심리실험_B조_기말과제용심리실험.osexp,C:\Users\caphi\Downloads,no,mono,no,18,no,black,no,no,768,psycho,32,32,0,C:\Users\caphi\Downloads\quickrun.csv,psycho,Lentiform Loewenfeld,3.3.14,no,해변,natural,similar-environmental,0,None,,a,,s,None,n,0.0218000495806336,,1139.3117000116035,,7848.357099923305,0.0218000495806336,569.3176999920979,2,psycho,1024,2,48000,-16,experiment,999,odd,파라솔,artifactual,,94759.50229994488,25702.940699993636,25702.83660001587,,24561.58440001309,9185.249499976637,25702.25870003924,,94030.05409997422,9260.003600036724,95447.81319994944,95448.1043999549,17109.145599999465,94242.98079998698,,94877.39299994428,94006.78609998433,Extended template,0,0.8205999620258808,33,yes,1024
0,0,0.0247735297307372,0.0247735297307372,white,yes,psycho,psycho,psycho,0,uniform,0,undefined,0,n,1,0,36,1,1,0,0,0,0,,36,0,36,36,0,36,1,36,36,Sat Dec  2 17:32:21 2023,A template containing a practice and an experimental phase,yes,언어학과심리실험_B조_기말과제용심리실험.osexp,C:\Users\caphi\Downloads,no,mono,no,18,no,black,no,no,768,psycho,33,33,0,C:\Users\caphi\Downloads\quickrun.csv,psycho,Lentiform Loewenfeld,3.3.14,no,대학교,artifactual,no-correlation,0,None,,a,,s,None,n,0.0217000488191843,,1139.3117000116035,,7848.357099923305,0.0217000488191843,756.7495999392122,2,psycho,1024,2,48000,-16,experiment,999,odd,계곡,natural,,96310.5677999556,25702.940699993636,25702.83660001587,,24561.58440001309,9185.249499976637,25702.25870003924,,95580.01249993686,9260.003600036724,97184.39259997103,97184.68509998638,17109.145599999465,95793.29459997824,,96426.52219999582,95560.1818000432,Extended template,0,0.8423000108450651,34,yes,1024
0,0,0.02466857300273,0.02466857300273,white,yes,psycho,psycho,psycho,0,uniform,0,undefined,0,a,1,0,37,1,1,0,0,0,0,,37,0,37,37,0,37,1,37,37,Sat Dec  2 17:32:21 2023,A template containing a practice and an experimental phase,yes,언어학과심리실험_B조_기말과제용심리실험.osexp,C:\Users\caphi\Downloads,no,mono,no,18,no,black,no,no,768,psycho,34,34,0,C:\Users\caphi\Downloads\quickrun.csv,psycho,Lentiform Loewenfeld,3.3.14,no,소나무,natural,same phoneme,0,None,,a,,s,None,a,0.0211000442504882,,1139.3117000116035,,7848.357099923305,0.0211000442504882,687.9028000403196,2,psycho,1024,2,48000,-16,experiment,999,odd,소방서,artifactual,,98030.61549994165,25702.940699993636,25702.83660001587,,24561.58440001309,9185.249499976637,25702.25870003924,,97295.95609998796,9260.003600036724,98831.84899995103,98832.14369998312,17109.145599999465,97510.6356999604,,98143.07059999555,97285.889999941,Extended template,0,0.8634000550955534,35,yes,1024
0,0,0.0245638916061984,0.0245638916061984,white,yes,psycho,psycho,psycho,0,uniform,0,undefined,0,a,1,0,38,1,1,0,0,0,0,,38,0,38,38,0,38,1,38,38,Sat Dec  2 17:32:21 2023,A template containing a practice and an experimental phase,yes,언어학과심리실험_B조_기말과제용심리실험.osexp,C:\Users\caphi\Downloads,no,mono,no,18,no,black,no,no,768,psycho,35,35,0,C:\Users\caphi\Downloads\quickrun.csv,psycho,Lentiform Loewenfeld,3.3.14,no,선설수,non-word,non-word,0,None,,a,,s,None,a,0.0209000427275896,,1139.3117000116035,,7848.357099923305,0.0209000427275896,645.381800015457,2,psycho,1024,2,48000,-16,experiment,999,odd,시계,artifactual,,99677.34259995632,25702.940699993636,25702.83660001587,,24561.58440001309,9185.249499976637,25702.25870003924,,98947.01649993658,9260.003600036724,100439.25189995208,100439.55150002148,17109.145599999465,99160.08219996002,,99792.98929998184,98934.17369993404,Extended template,0,0.884300097823143,36,yes,1024
0,0,0.0245081090896918,0.0245081090896918,white,yes,psycho,psycho,psycho,0,uniform,0,undefined,0,a,1,0,39,1,1,0,0,0,0,,39,0,39,39,0,39,1,39,39,Sat Dec  2 17:32:21 2023,A template containing a practice and an experimental phase,yes,언어학과심리실험_B조_기말과제용심리실험.osexp,C:\Users\caphi\Downloads,no,mono,no,18,no,black,no,no,768,psycho,36,36,0,C:\Users\caphi\Downloads\quickrun.csv,psycho,Lentiform Loewenfeld,3.3.14,no,모자,artifactual,no-correlation,0,None,,a,,s,None,a,0.0224999384954571,,1139.3117000116035,,7848.357099923305,0.0224999384954571,595.6112999701872,2,psycho,1024,2,48000,-16,experiment,999,odd,마우스,artifactual,,101310.13080000412,25702.940699993636,25702.83660001587,,24561.58440001309,9185.249499976637,25702.25870003924,,100570.68879995497,9260.003600036724,102023.74730003066,102024.04589997604,17109.145599999465,100793.28760004137,,101427.26050002966,100541.16459994113,Extended template,0,0.9068000363186002,37,yes,1024
0,0,0.0244289495688127,0.0244289495688127,white,yes,psycho,psycho,psycho,0,uniform,0,undefined,0,a,1,0,40,1,1,0,0,0,0,,40,0,40,40,0,40,1,40,40,Sat Dec  2 17:32:21 2023,A template containing a practice and an experimental phase,yes,언어학과심리실험_B조_기말과제용심리실험.osexp,C:\Users\caphi\Downloads,no,mono,no,18,no,black,no,no,768,psycho,37,37,0,C:\Users\caphi\Downloads\quickrun.csv,psycho,Lentiform Loewenfeld,3.3.14,no,모니터,artifactual,same phoneme,0,None,,a,,s,None,a,0.0215000472962856,,1139.3117000116035,,7848.357099923305,0.0215000472962856,853.6849000956863,2,psycho,1024,2,48000,-16,experiment,999,odd,모터,artifactual,,102877.51459993888,25702.940699993636,25702.83660001587,,24561.58440001309,9185.249499976637,25702.25870003924,,102147.31699996628,9260.003600036724,103847.854899941,103848.16639998462,17109.145599999465,102360.36599997897,,102993.34069993348,102124.97470004018,Extended template,0,0.9283000836148858,38,yes,1024
0,0,0.0243359006559237,0.0243359006559237,white,yes,psycho,psycho,psycho,0,uniform,0,undefined,0,n,1,0,41,1,1,0,0,0,0,,41,0,41,41,0,41,1,41,41,Sat Dec  2 17:32:21 2023,A template containing a practice and an experimental phase,yes,언어학과심리실험_B조_기말과제용심리실험.osexp,C:\Users\caphi\Downloads,no,mono,no,18,no,black,no,no,768,psycho,38,38,0,C:\Users\caphi\Downloads\quickrun.csv,psycho,Lentiform Loewenfeld,3.3.14,no,밤하늘,natural,no-correlation,0,None,,a,,s,None,n,0.0208000419661402,,1139.3117000116035,,7848.357099923305,0.0208000419661402,660.9508999390528,2,psycho,1024,2,48000,-16,experiment,999,odd,바위,natural,,104693.7094000168,25702.940699993636,25702.83660001587,,24561.58440001309,9185.249499976637,25702.25870003924,,103962.59649994316,9260.003600036724,105472.06549998371,105472.38109994214,17109.145599999465,104176.59339995588,,104810.2121000411,103950.55509998927,Extended template,0,0.949100125581026,39,yes,1024
0,0,0.0243800051975995,0.0243800051975995,white,yes,psycho,psycho,psycho,0,uniform,0,undefined,0,n,1,0,42,1,1,0,0,0,0,,42,0,42,42,0,42,1,42,42,Sat Dec  2 17:32:21 2023,A template containing a practice and an experimental phase,yes,언어학과심리실험_B조_기말과제용심리실험.osexp,C:\Users\caphi\Downloads,no,mono,no,18,no,black,no,no,768,psycho,39,39,0,C:\Users\caphi\Downloads\quickrun.csv,psycho,Lentiform Loewenfeld,3.3.14,no,악어,natural,similar-environmental,0,None,,a,,s,None,n,0.0261000823229551,,1139.3117000116035,,7848.357099923305,0.0261000823229551,764.156199991703,2,psycho,1024,2,48000,-16,experiment,999,odd,늪,natural,,106327.2096000146,25702.940699993636,25702.83660001587,,24561.58440001309,9185.249499976637,25702.25870003924,,105596.72939998563,9260.003600036724,107208.26919993851,107208.642099984,17109.145599999465,105809.61630004458,,106443.06149997284,105573.2619999908,Extended template,0,0.9752002079039812,40,yes,1024
0,0,0.0243097623219577,0.0243097623219577,white,yes,psycho,psycho,psycho,0,uniform,0,undefined,0,n,1,0,43,1,1,0,0,0,0,,43,0,43,43,0,43,1,43,43,Sat Dec  2 17:32:21 2023,A template containing a practice and an experimental phase,yes,언어학과심리실험_B조_기말과제용심리실험.osexp,C:\Users\caphi\Downloads,no,mono,no,18,no,black,no,no,768,psycho,40,40,0,C:\Users\caphi\Downloads\quickrun.csv,psycho,Lentiform Loewenfeld,3.3.14,no,태양,natural,same phoneme,0,None,,a,,s,None,n,0.0215000472962856,,1139.3117000116035,,7848.357099923305,0.0215000472962856,605.2720999578014,2,psycho,1024,2,48000,-16,experiment,999,odd,태풍,natural,,108060.98459998611,25702.940699993636,25702.83660001587,,24561.58440001309,9185.249499976637,25702.25870003924,,107329.4330999488,9260.003600036724,108783.7259999942,108784.0470999945,17109.145599999465,107543.0447999388,,108177.54710000008,107311.09570001718,Extended template,0,0.9967002552002668,41,yes,1024
0,0,0.0242785789028164,0.0242785789028164,white,yes,psycho,psycho,psycho,0,uniform,0,undefined,0,n,0,0,44,1,1,0,0,0,0,,44,0,44,44,0,44,1,44,44,Sat Dec  2 17:32:21 2023,A template containing a practice and an experimental phase,yes,언어학과심리실험_B조_기말과제용심리실험.osexp,C:\Users\caphi\Downloads,no,mono,no,18,no,black,no,no,768,psycho,41,41,0,C:\Users\caphi\Downloads\quickrun.csv,psycho,Lentiform Loewenfeld,3.3.14,no,달,artifactual,same phoneme,0,None,,a,,s,None,a,0.0230000587180256,,1139.3117000116035,,7848.357099923305,0.0230000587180256,662.1710000326857,2,psycho,1024,2,48000,-16,experiment,999,odd,달력,natural,,109627.59729998652,25702.940699993636,25702.83660001587,,24561.58440001309,9185.249499976637,25702.25870003924,,108896.12799999304,9260.003600036724,110407.66529995015,110408.0140000442,17109.145599999465,109110.09640002158,,109744.55029994716,108884.54400002956,Extended template,0,1.0197003139182923,42,yes,1024
0,0,0.0242232615777919,0.0242232615777919,white,yes,psycho,psycho,psycho,0,uniform,0,undefined,0,n,1,0,45,1,1,0,0,0,0,,45,0,45,45,0,45,1,45,45,Sat Dec  2 17:32:21 2023,A template containing a practice and an experimental phase,yes,언어학과심리실험_B조_기말과제용심리실험.osexp,C:\Users\caphi\Downloads,no,mono,no,18,no,black,no,no,768,psycho,42,42,0,C:\Users\caphi\Downloads\quickrun.csv,psycho,Lentiform Loewenfeld,3.3.14,no,태양계,natural,inclusive,0,None,,a,,s,None,n,0.0218999339267611,,1139.3117000116035,,7848.357099923305,0.0218999339267611,629.2784000979736,2,psycho,1024,2,48000,-16,experiment,999,odd,목성,natural,,111260.66739996897,25702.940699993636,25702.83660001587,,24561.58440001309,9185.249499976637,25702.25870003924,,110530.29539994895,9260.003600036724,112007.8464000253,112008.19600000978,17109.145599999465,110743.22900001424,,111377.6671999367,110510.00150002072,Extended template,0,1.0416002478450537,43,yes,1024
0,0,0.0242250071923163,0.0242250071923163,white,yes,psycho,psycho,psycho,0,uniform,0,undefined,0,a,1,0,46,1,1,0,0,0,0,,46,0,46,46,0,46,1,46,46,Sat Dec  2 17:32:21 2023,A template containing a practice and an experimental phase,yes,언어학과심리실험_B조_기말과제용심리실험.osexp,C:\Users\caphi\Downloads,no,mono,no,18,no,black,no,no,768,psycho,43,43,0,C:\Users\caphi\Downloads\quickrun.csv,psycho,Lentiform Loewenfeld,3.3.14,no,키보드,artifactual,similar-environmental,0,None,,a,,s,None,a,0.024300068616867,,1139.3117000116035,,7848.357099923305,0.024300068616867,773.8088999176398,2,psycho,1024,2,48000,-16,experiment,999,odd,컴퓨터,artifactual,,112860.69669993594,25702.940699993636,25702.83660001587,,24561.58440001309,9185.249499976637,25702.25870003924,,112130.50239998849,9260.003600036724,113751.8146999646,113752.1786999423,17109.145599999465,112343.41850003692,,112976.98100004344,112111.22860002796,Extended template,0,1.0659003164619207,44,yes,1024
0,0,0.0241866749193933,0.0241866749193933,white,yes,psycho,psycho,psycho,0,uniform,0,undefined,0,x,0,0,47,1,1,0,0,0,0,,47,0,47,47,0,47,1,47,47,Sat Dec  2 17:32:21 2023,A template containing a practice and an experimental phase,yes,언어학과심리실험_B조_기말과제용심리실험.osexp,C:\Users\caphi\Downloads,no,mono,no,18,no,black,no,no,768,psycho,44,44,0,C:\Users\caphi\Downloads\quickrun.csv,psycho,Lentiform Loewenfeld,3.3.14,no,절벽,natural,non-word,0,None,,a,,s,None,a,0.022500054910779,,1139.3117000116035,,7848.357099923305,0.022500054910779,1015.7761999871582,2,psycho,1024,2,48000,-16,experiment,999,odd,물로프,non-word,,114610.6306000147,25702.940699993636,25702.83660001587,,24561.58440001309,9185.249499976637,25702.25870003924,,113881.10120000783,9260.003600036724,115743.4999999823,115743.85339999571,17109.145599999465,114093.86609995272,,114726.82710003572,113856.08169995248,Extended template,0,1.0884003713726995,45,yes,1024
0,0,0.0241695721026348,0.0241695721026348,white,yes,psycho,psycho,psycho,0,uniform,0,undefined,0,a,1,0,48,1,1,0,0,0,0,,48,0,48,48,0,48,1,48,48,Sat Dec  2 17:32:21 2023,A template containing a practice and an experimental phase,yes,언어학과심리실험_B조_기말과제용심리실험.osexp,C:\Users\caphi\Downloads,no,mono,no,18,no,black,no,no,768,psycho,45,45,0,C:\Users\caphi\Downloads\quickrun.csv,psycho,Lentiform Loewenfeld,3.3.14,no,바다,natural,same phoneme,0,None,,a,,s,None,a,0.0233999453485012,,1139.3117000116035,,7848.357099923305,0.0233999453485012,1176.9505999982357,2,psycho,1024,2,48000,-16,experiment,999,odd,바닥,artifactual,,116594.01320002507,25702.940699993636,25702.83660001587,,24561.58440001309,9185.249499976637,25702.25870003924,,115863.14739997032,9260.003600036724,117888.02820001727,117888.39360000566,17109.145599999465,116077.83530000596,,116710.09569999296,115845.79049993772,Extended template,0,1.111800316721201,46,yes,1024
0,0,0.024151071866459,0.024151071866459,white,yes,psycho,psycho,psycho,0,uniform,0,undefined,0,n,1,0,49,1,1,0,0,0,0,,49,0,49,49,0,49,1,49,49,Sat Dec  2 17:32:21 2023,A template containing a practice and an experimental phase,yes,언어학과심리실험_B조_기말과제용심리실험.osexp,C:\Users\caphi\Downloads,no,mono,no,18,no,black,no,no,768,psycho,46,46,0,C:\Users\caphi\Downloads\quickrun.csv,psycho,Lentiform Loewenfeld,3.3.14,no,해질녘,natural,same phoneme,0,None,,a,,s,None,n,0.0233000610023736,,1139.3117000116035,,7848.357099923305,0.0233000610023736,3099.011499900371,2,psycho,1024,2,48000,-16,experiment,999,odd,해마,natural,,118728.21560001466,25702.940699993636,25702.83660001587,,24561.58440001309,9185.249499976637,25702.25870003924,,117996.25810002908,9260.003600036724,121944.15759993716,121944.52330004424,17109.145599999465,118210.8564999653,,118844.18350004124,117984.8419999471,Extended template,0,1.1351003777235746,47,yes,1024
0,0,0.0241104256322917,0.0241104256322917,white,yes,psycho,psycho,psycho,0,uniform,0,undefined,0,n,1,0,50,1,1,0,0,0,0,,50,0,50,50,0,50,1,50,50,Sat Dec  2 17:32:21 2023,A template containing a practice and an experimental phase,yes,언어학과심리실험_B조_기말과제용심리실험.osexp,C:\Users\caphi\Downloads,no,mono,no,18,no,black,no,no,768,psycho,47,47,0,C:\Users\caphi\Downloads\quickrun.csv,psycho,Lentiform Loewenfeld,3.3.14,no,호랑이,natural,same phoneme,0,None,,a,,s,None,n,0.0222000526264309,,1139.3117000116035,,7848.357099923305,0.0222000526264309,2377.0198000129312,2,psycho,1024,2,48000,-16,experiment,999,odd,호수,natural,,122795.3101999592,25702.940699993636,25702.83660001587,,24561.58440001309,9185.249499976637,25702.25870003924,,122062.66599998344,9260.003600036724,125288.67739997804,125289.02919997928,17109.145599999465,122276.80530003272,,122910.61919997446,122046.50329996366,Extended template,0,1.1573004303500056,48,yes,1024
0,0,0.0242326617697063,0.0242326617697063,white,yes,psycho,psycho,psycho,0,uniform,0,undefined,0,a,1,0,51,1,1,0,0,0,0,,51,0,51,51,0,51,1,51,51,Sat Dec  2 17:32:21 2023,A template containing a practice and an experimental phase,yes,언어학과심리실험_B조_기말과제용심리실험.osexp,C:\Users\caphi\Downloads,no,mono,no,18,no,black,no,no,768,psycho,48,48,0,C:\Users\caphi\Downloads\quickrun.csv,psycho,Lentiform Loewenfeld,3.3.14,no,교통,artifactual,inclusive,0,None,,a,,s,None,a,0.0300999963656067,,1139.3117000116035,,7848.357099923305,0.0300999963656067,626.5603998908773,2,psycho,1024,2,48000,-16,experiment,999,odd,자동차,artifactual,,126144.4500000216,25702.940699993636,25702.83660001587,,24561.58440001309,9185.249499976637,25702.25870003924,,125414.19089992996,9260.003600036724,126888.28219997232,126888.6614999501,17109.145599999465,125628.17030004226,,126260.61570004094,125390.6294000335,Extended template,0,1.1874004267156124,49,yes,1024
0,0,0.0241760071367025,0.0241760071367025,white,yes,psycho,psycho,psycho,0,uniform,0,undefined,0,a,1,0,52,1,1,0,0,0,0,,52,0,52,52,0,52,1,52,52,Sat Dec  2 17:32:21 2023,A template containing a practice and an experimental phase,yes,언어학과심리실험_B조_기말과제용심리실험.osexp,C:\Users\caphi\Downloads,no,mono,no,18,no,black,no,no,768,psycho,49,49,0,C:\Users\caphi\Downloads\quickrun.csv,psycho,Lentiform Loewenfeld,3.3.14,no,시,artifactual,similar-environmental,0,None,,a,,s,None,a,0.0213999301195144,,1139.3117000116035,,7848.357099923305,0.0213999301195144,698.5675999894738,2,psycho,1024,2,48000,-16,experiment,999,odd,소설,artifactual,,127744.53739996534,25702.940699993636,25702.83660001587,,24561.58440001309,9185.249499976637,25702.25870003924,,127014.30759998038,9260.003600036724,128560.57440000586,128560.95209997147,17109.145599999465,127227.35389997251,,127861.05249996764,126990.40010001045,Extended template,0,1.2088003568351269,50,yes,1024
0,0,0.0241254958525007,0.0241254958525007,white,yes,psycho,psycho,psycho,0,uniform,0,undefined,0,n,1,0,53,1,1,0,0,0,0,,53,0,53,53,0,53,1,53,53,Sat Dec  2 17:32:21 2023,A template containing a practice and an experimental phase,yes,언어학과심리실험_B조_기말과제용심리실험.osexp,C:\Users\caphi\Downloads,no,mono,no,18,no,black,no,no,768,psycho,50,50,0,C:\Users\caphi\Downloads\quickrun.csv,psycho,Lentiform Loewenfeld,3.3.14,no,호수,natural,same phoneme,0,None,,a,,s,None,n,0.0215999316424131,,1139.3117000116035,,7848.357099923305,0.0215999316424131,560.2116000372916,2,psycho,1024,2,48000,-16,experiment,999,odd,호랑이,natural,,129410.86960001849,25702.940699993636,25702.83660001587,,24561.58440001309,9185.249499976637,25702.25870003924,,128679.63589995634,9260.003600036724,130088.40010000858,130088.77199993005,17109.145599999465,128894.62519995868,,129527.07239997108,128664.78749993256,Extended template,0,1.23040028847754,51,yes,1024
0,0,0.0240711580353001,0.0240711580353001,white,yes,psycho,psycho,psycho,0,uniform,0,undefined,0,a,1,0,54,1,1,0,0,0,0,,54,0,54,54,0,54,1,54,54,Sat Dec  2 17:32:21 2023,A template containing a practice and an experimental phase,yes,언어학과심리실험_B조_기말과제용심리실험.osexp,C:\Users\caphi\Downloads,no,mono,no,18,no,black,no,no,768,psycho,51,51,0,C:\Users\caphi\Downloads\quickrun.csv,psycho,Lentiform Loewenfeld,3.3.14,no,바람,natural,no-correlation,0,None,,a,,s,None,a,0.0212999293580651,,1139.3117000116035,,7848.357099923305,0.0212999293580651,627.1287999115884,2,psycho,1024,2,48000,-16,experiment,999,odd,버스,artifactual,,130944.21230000444,25702.940699993636,25702.83660001587,,24561.58440001309,9185.249499976637,25702.25870003924,,130213.67920003831,9260.003600036724,131688.96810000297,131689.35550004244,17109.145599999465,130427.55719996056,,131060.70010003168,130190.76110003516,Extended template,0,1.2517002178356051,52,yes,1024
0,0,0.0242509479406026,0.0242509479406026,white,yes,psycho,psycho,psycho,0,uniform,0,undefined,0,a,1,0,55,1,1,0,0,0,0,,55,0,55,55,0,55,1,55,55,Sat Dec  2 17:32:21 2023,A template containing a practice and an experimental phase,yes,언어학과심리실험_B조_기말과제용심리실험.osexp,C:\Users\caphi\Downloads,no,mono,no,18,no,black,no,no,768,psycho,52,52,0,C:\Users\caphi\Downloads\quickrun.csv,psycho,Lentiform Loewenfeld,3.3.14,no,바람,natural,similar-environmental,0,None,,a,,s,None,a,0.0336000230163335,,1139.3117000116035,,7848.357099923305,0.0336000230163335,762.8161000320688,2,psycho,1024,2,48000,-16,experiment,999,odd,창문,artifactual,,132544.28499995265,25702.940699993636,25702.83660001587,,24561.58440001309,9185.249499976637,25702.25870003924,,131813.73109994456,9260.003600036724,133424.92399993353,133425.3395999549,17109.145599999465,132028.0126000289,,132660.89319996536,131789.82880001422,Extended template,0,1.2853002408519387,53,yes,1024
0,0,0.0242611169125194,0.0242611169125194,white,yes,psycho,psycho,psycho,0,uniform,0,undefined,0,n,1,0,56,1,1,0,0,0,0,,56,0,56,56,0,56,1,56,56,Sat Dec  2 17:32:21 2023,A template containing a practice and an experimental phase,yes,언어학과심리실험_B조_기말과제용심리실험.osexp,C:\Users\caphi\Downloads,no,mono,no,18,no,black,no,no,768,psycho,53,53,0,C:\Users\caphi\Downloads\quickrun.csv,psycho,Lentiform Loewenfeld,3.3.14,no,과일,natural,inclusive,0,None,,a,,s,None,n,0.0248000724241137,,1139.3117000116035,,7848.357099923305,0.0248000724241137,541.1612000316381,2,psycho,1024,2,48000,-16,experiment,999,odd,사과,natural,,134277.86010003183,25702.940699993636,25702.83660001587,,24561.58440001309,9185.249499976637,25702.25870003924,,133547.91670001578,9260.003600036724,134936.5162999602,134936.95320002735,17109.145599999465,133761.0595000442,,134394.36429995112,133526.2340999907,Extended template,0,1.3101003132760525,54,yes,1024
0,0,0.024221824820746,0.024221824820746,white,yes,psycho,psycho,psycho,0,uniform,0,undefined,0,n,1,0,57,1,1,0,0,0,0,,57,0,57,57,0,57,1,57,57,Sat Dec  2 17:32:21 2023,A template containing a practice and an experimental phase,yes,언어학과심리실험_B조_기말과제용심리실험.osexp,C:\Users\caphi\Downloads,no,mono,no,18,no,black,no,no,768,psycho,54,54,0,C:\Users\caphi\Downloads\quickrun.csv,psycho,Lentiform Loewenfeld,3.3.14,no,달력,artifactual,same phoneme,0,None,,a,,s,None,n,0.0221000518649816,,1139.3117000116035,,7848.357099923305,0.0221000518649816,681.9993000244722,2,psycho,1024,2,48000,-16,experiment,999,odd,달,natural,,135777.62840001378,25702.940699993636,25702.83660001587,,24561.58440001309,9185.249499976637,25702.25870003924,,135047.584899934,9260.003600036724,136576.65459997952,136577.05249998253,17109.145599999465,135261.30849996116,,135893.67909997236,135036.33030003402,Extended template,0,1.332200365141034,55,yes,1024
0,0,0.0242785775169198,0.0242785775169198,white,yes,psycho,psycho,psycho,0,uniform,0,undefined,0,a,1,0,58,1,1,0,0,0,0,,58,0,58,58,0,58,1,58,58,Sat Dec  2 17:32:21 2023,A template containing a practice and an experimental phase,yes,언어학과심리실험_B조_기말과제용심리실험.osexp,C:\Users\caphi\Downloads,no,mono,no,18,no,black,no,no,768,psycho,55,55,0,C:\Users\caphi\Downloads\quickrun.csv,psycho,Lentiform Loewenfeld,3.3.14,no,플피,non-word,non-word,0,None,,a,,s,None,a,0.0273999758064746,,1139.3117000116035,,7848.357099923305,0.0273999758064746,766.9589000288397,2,psycho,1024,2,48000,-16,experiment,999,odd,책상,artifactual,,137428.0168999685,25702.940699993636,25702.83660001587,,24561.58440001309,9185.249499976637,25702.25870003924,,136697.49659998342,9260.003600036724,138313.12830001116,138313.53529996704,17109.145599999465,136911.1019000411,,137544.45259994827,136678.32850001287,Extended template,0,1.3596003409475088,56,yes,1024
0,0,0.0242350945706691,0.0242350945706691,white,yes,psycho,psycho,psycho,0,uniform,0,undefined,0,n,1,0,59,1,1,0,0,0,0,,59,0,59,59,0,59,1,59,59,Sat Dec  2 17:32:21 2023,A template containing a practice and an experimental phase,yes,언어학과심리실험_B조_기말과제용심리실험.osexp,C:\Users\caphi\Downloads,no,mono,no,18,no,black,no,no,768,psycho,56,56,0,C:\Users\caphi\Downloads\quickrun.csv,psycho,Lentiform Loewenfeld,3.3.14,no,늪,natural,similar-environmental,0,None,,a,,s,None,n,0.0218000495806336,,1139.3117000116035,,7848.357099923305,0.0218000495806336,610.6522999471053,2,psycho,1024,2,48000,-16,experiment,999,odd,악어,natural,,139161.82569996454,25702.940699993636,25702.83660001587,,24561.58440001309,9185.249499976637,25702.25870003924,,138430.51059998106,9260.003600036724,139889.39399993978,139889.81219998095,17109.145599999465,138644.89029999822,,139277.61340001598,138414.56720000133,Extended template,0,1.3814003905281425,57,yes,1024
0,0,0.0241965593384771,0.0241965593384771,white,yes,psycho,psycho,psycho,0,uniform,0,undefined,0,a,0,0,60,1,1,0,0,0,0,,60,0,60,60,0,60,1,60,60,Sat Dec  2 17:32:21 2023,A template containing a practice and an experimental phase,yes,언어학과심리실험_B조_기말과제용심리실험.osexp,C:\Users\caphi\Downloads,no,mono,no,18,no,black,no,no,768,psycho,57,57,0,C:\Users\caphi\Downloads\quickrun.csv,psycho,Lentiform Loewenfeld,3.3.14,no,마우스,artifactual,no-correlation,0,None,,a,,s,None,n,0.0220000511035323,,1139.3117000116035,,7848.357099923305,0.0220000511035323,849.721800070256,2,psycho,1024,2,48000,-16,experiment,999,odd,모자,artifactual,,140744.84399997164,25702.940699993636,25702.83660001587,,24561.58440001309,9185.249499976637,25702.25870003924,,140013.91800004058,9260.003600036724,141712.76869997382,141713.17579993047,17109.145599999465,140228.77159994096,,140861.86349997297,140002.3212999804,Extended template,0,1.4034004416316748,58,yes,1024
0,0,0.0241881421909241,0.0241881421909241,white,yes,psycho,psycho,psycho,0,uniform,0,undefined,0,a,1,0,61,1,1,0,0,0,0,,61,0,61,61,0,61,1,61,61,Sat Dec  2 17:32:21 2023,A template containing a practice and an experimental phase,yes,언어학과심리실험_B조_기말과제용심리실험.osexp,C:\Users\caphi\Downloads,no,mono,no,18,no,black,no,no,768,psycho,58,58,0,C:\Users\caphi\Downloads\quickrun.csv,psycho,Lentiform Loewenfeld,3.3.14,no,경주,artifactual,no-correlation,0,None,,a,,s,None,a,0.0236999476328492,,1139.3117000116035,,7848.357099923305,0.0236999476328492,610.5950999772176,2,psycho,1024,2,48000,-16,experiment,999,odd,버스,artifactual,,142561.22569995932,25702.940699993636,25702.83660001587,,24561.58440001309,9185.249499976637,25702.25870003924,,141830.89959993958,9260.003600036724,143289.2506000353,143289.6818999434,17109.145599999465,142044.37369992957,,142677.4436000269,141813.96139995195,Extended template,0,1.427100389264524,59,yes,1024
0,0,0.0242016743868589,0.0242016743868589,white,yes,psycho,psycho,psycho,0,uniform,0,undefined,0,a,1,0,62,1,1,0,0,0,0,,62,0,62,62,0,62,1,62,62,Sat Dec  2 17:32:21 2023,A template containing a practice and an experimental phase,yes,언어학과심리실험_B조_기말과제용심리실험.osexp,C:\Users\caphi\Downloads,no,mono,no,18,no,black,no,no,768,psycho,59,59,0,C:\Users\caphi\Downloads\quickrun.csv,psycho,Lentiform Loewenfeld,3.3.14,no,계곡,natural,no-correlation,0,None,,a,,s,None,a,0.0250000739470124,,1139.3117000116035,,7848.357099923305,0.0250000739470124,971.662300056778,2,psycho,1024,2,48000,-16,experiment,999,odd,화장실,artifactual,,144144.58760002162,25702.940699993636,25702.83660001587,,24561.58440001309,9185.249499976637,25702.25870003924,,143415.55879998486,9260.003600036724,145233.2983999513,145233.7660000194,17109.145599999465,143628.17040004302,,144260.61919995118,143390.73450001888,Extended template,0,1.4521004632115364,60,yes,1024
0,0,0.0242754191038061,0.0242754191038061,white,yes,psycho,psycho,psycho,0,uniform,0,undefined,0,a,1,0,63,1,1,0,0,0,0,,63,0,63,63,0,63,1,63,63,Sat Dec  2 17:32:21 2023,A template containing a practice and an experimental phase,yes,언어학과심리실험_B조_기말과제용심리실험.osexp,C:\Users\caphi\Downloads,no,mono,no,18,no,black,no,no,768,psycho,60,60,0,C:\Users\caphi\Downloads\quickrun.csv,psycho,Lentiform Loewenfeld,3.3.14,no,바다,natural,similar-environmental,0,None,,a,,s,None,a,0.0287001021206378,,1139.3117000116035,,7848.357099923305,0.0287001021206378,973.5844999086112,2,psycho,1024,2,48000,-16,experiment,999,odd,배,artifactual,,146078.07829999365,25702.940699993636,25702.83660001587,,24561.58440001309,9185.249499976637,25702.25870003924,,145347.1942000324,9260.003600036724,147169.23679993488,147169.6929000318,17109.145599999465,145561.01579999086,,146194.38410003204,145334.7031000303,Extended template,0,1.4808005653321743,61,yes,1024
0,0,0.0242258162958727,0.0242258162958727,white,yes,psycho,psycho,psycho,0,uniform,0,undefined,0,a,1,0,64,1,1,0,0,0,0,,64,0,64,64,0,64,1,64,64,Sat Dec  2 17:32:21 2023,A template containing a practice and an experimental phase,yes,언어학과심리실험_B조_기말과제용심리실험.osexp,C:\Users\caphi\Downloads,no,mono,no,18,no,black,no,no,768,psycho,61,61,0,C:\Users\caphi\Downloads\quickrun.csv,psycho,Lentiform Loewenfeld,3.3.14,no,프린터,artifactual,similar-environmental,0,None,,a,,s,None,a,0.0212000450119376,,1139.3117000116035,,7848.357099923305,0.0212000450119376,6015.921700047329,2,psycho,1024,2,48000,-16,experiment,999,odd,종이,artifactual,,148012.0457999874,25702.940699993636,25702.83660001587,,24561.58440001309,9185.249499976637,25702.25870003924,,147279.98270001262,9260.003600036724,154145.04319999833,154145.5288999714,17109.145599999465,147494.89520001225,,148128.03409993649,147271.44649997354,Extended template,0,1.502000610344112,62,yes,1024
0,0,0.0241761990187187,0.0241761990187187,white,yes,psycho,psycho,psycho,0,uniform,0,undefined,0,x,1,0,65,1,1,0,0,0,0,,65,0,65,65,0,65,1,65,65,Sat Dec  2 17:32:21 2023,A template containing a practice and an experimental phase,yes,언어학과심리실험_B조_기말과제용심리실험.osexp,C:\Users\caphi\Downloads,no,mono,no,18,no,black,no,no,768,psycho,62,62,0,C:\Users\caphi\Downloads\quickrun.csv,psycho,Lentiform Loewenfeld,3.3.14,no,사자,natural,non-word,0,None,,a,,s,None,x,0.0210999278351664,,1139.3117000116035,,7848.357099923305,0.0210999278351664,1161.3011000445113,2,psycho,1024,2,48000,-16,experiment,999,odd,러스바이,non-word,,154995.4851999646,25702.940699993636,25702.83660001587,,24561.58440001309,9185.249499976637,25702.25870003924,,154264.76149994414,9260.003600036724,156273.7128000008,156274.15279997513,17109.145599999465,154478.41820004396,,155111.20970000047,154246.85769993812,Extended template,0,1.5231005381792784,63,yes,1024
0,0,0.0243140711972955,0.0243140711972955,white,yes,psycho,psycho,psycho,0,uniform,0,undefined,0,a,1,0,66,1,1,0,0,0,0,,66,0,66,66,0,66,1,66,66,Sat Dec  2 17:32:21 2023,A template containing a practice and an experimental phase,yes,언어학과심리실험_B조_기말과제용심리실험.osexp,C:\Users\caphi\Downloads,no,mono,no,18,no,black,no,no,768,psycho,63,63,0,C:\Users\caphi\Downloads\quickrun.csv,psycho,Lentiform Loewenfeld,3.3.14,no,국가,artifactual,inclusive,0,None,,a,,s,None,a,0.0330000184476375,,1139.3117000116035,,7848.357099923305,0.0330000184476375,1012.0419999584556,2,psycho,1024,2,48000,-16,experiment,999,odd,대한민국,artifactual,,157127.85099993926,25702.940699993636,25702.83660001587,,24561.58440001309,9185.249499976637,25702.25870003924,,156398.00919999834,9260.003600036724,158258.07859993074,158258.56989994645,17109.145599999465,156611.8236000184,,157244.8924999917,156376.0006999364,Extended template,0,1.556100556626916,64,yes,1024
0,0,0.0242907786741852,0.0242907786741852,white,yes,psycho,psycho,psycho,0,uniform,0,undefined,0,n,1,0,67,1,1,0,0,0,0,,67,0,67,67,0,67,1,67,67,Sat Dec  2 17:32:21 2023,A template containing a practice and an experimental phase,yes,언어학과심리실험_B조_기말과제용심리실험.osexp,C:\Users\caphi\Downloads,no,mono,no,18,no,black,no,no,768,psycho,64,64,0,C:\Users\caphi\Downloads\quickrun.csv,psycho,Lentiform Loewenfeld,3.3.14,no,해마,natural,same phoneme,0,None,,a,,s,None,n,0.022800057195127,,1139.3117000116035,,7848.357099923305,0.022800057195127,1251.6587000573054,2,psycho,1024,2,48000,-16,experiment,999,odd,해질녘,natural,,159111.62250000052,25702.940699993636,25702.83660001587,,24561.58440001309,9185.249499976637,25702.25870003924,,158381.89630000852,9260.003600036724,160481.44739994314,160481.9034000393,17109.145599999465,158595.2980000293,,159228.54139993433,158360.99650000688,Extended template,0,1.578900613822043,65,yes,1024
0,0,0.0242515234276652,0.0242515234276652,white,yes,psycho,psycho,psycho,0,uniform,0,undefined,0,n,0,0,68,1,1,0,0,0,0,,68,0,68,68,0,68,1,68,68,Sat Dec  2 17:32:21 2023,A template containing a practice and an experimental phase,yes,언어학과심리실험_B조_기말과제용심리실험.osexp,C:\Users\caphi\Downloads,no,mono,no,18,no,black,no,no,768,psycho,65,65,0,C:\Users\caphi\Downloads\quickrun.csv,psycho,Lentiform Loewenfeld,3.3.14,no,등산로,artifactual,similar-environmental,0,None,,a,,s,None,a,0.0216999324038624,,1139.3117000116035,,7848.357099923305,0.0216999324038624,1659.4734000973403,2,psycho,1024,2,48000,-16,experiment,999,odd,산,natural,,161328.8637000369,25702.940699993636,25702.83660001587,,24561.58440001309,9185.249499976637,25702.25870003924,,160597.95269998722,9260.003600036724,163105.67620000802,163106.1192000052,17109.145599999465,160811.62299995776,,161445.0754999416,160582.68570003565,Extended template,0,1.6006005462259054,66,yes,1024
0,0,0.0242298597525527,0.0242298597525527,white,yes,psycho,psycho,psycho,0,uniform,0,undefined,0,n,1,0,69,1,1,0,0,0,0,,69,0,69,69,0,69,1,69,69,Sat Dec  2 17:32:21 2023,A template containing a practice and an experimental phase,yes,언어학과심리실험_B조_기말과제용심리실험.osexp,C:\Users\caphi\Downloads,no,mono,no,18,no,black,no,no,768,psycho,66,66,0,C:\Users\caphi\Downloads\quickrun.csv,psycho,Lentiform Loewenfeld,3.3.14,no,멜블옴,non-word,non-word,0,None,,a,,s,None,n,0.022800057195127,,1139.3117000116035,,7848.357099923305,0.022800057195127,946.0724000819029,2,psycho,1024,2,48000,-16,experiment,999,odd,폭포,natural,,163961.8049999699,25702.940699993636,25702.83660001587,,24561.58440001309,9185.249499976637,25702.25870003924,,163231.0244999826,9260.003600036724,165026.08929993585,165026.54460002668,17109.145599999465,163444.9185000267,,164078.9603999583,163217.96979999635,Extended template,0,1.6234006034210324,67,yes,1024
0,0,0.0242220686392529,0.0242220686392529,white,yes,psycho,psycho,psycho,0,uniform,0,undefined,0,n,1,0,70,1,1,0,0,0,0,,70,0,70,70,0,70,1,70,70,Sat Dec  2 17:32:21 2023,A template containing a practice and an experimental phase,yes,언어학과심리실험_B조_기말과제용심리실험.osexp,C:\Users\caphi\Downloads,no,mono,no,18,no,black,no,no,768,psycho,67,67,0,C:\Users\caphi\Downloads\quickrun.csv,psycho,Lentiform Loewenfeld,3.3.14,no,곡물,natural,inclusive,0,None,,a,,s,None,n,0.023700064048171,,1139.3117000116035,,7848.357099923305,0.023700064048171,4141.675600083545,2,psycho,1024,2,48000,-16,experiment,999,odd,밀,natural,,165878.5742999753,25702.940699993636,25702.83660001587,,24561.58440001309,9185.249499976637,25702.25870003924,,165148.86820001993,9260.003600036724,170138.34189996123,170138.8235000195,17109.145599999465,165361.60429997835,,165995.54169992916,165127.17909994535,Extended template,0,1.6471006674692037,68,yes,1024
0,0,0.0241753709354046,0.0241753709354046,white,yes,psycho,psycho,psycho,0,uniform,0,undefined,0,a,1,0,71,1,1,0,0,0,0,,71,0,71,71,0,71,1,71,71,Sat Dec  2 17:32:21 2023,A template containing a practice and an experimental phase,yes,언어학과심리실험_B조_기말과제용심리실험.osexp,C:\Users\caphi\Downloads,no,mono,no,18,no,black,no,no,768,psycho,68,68,0,C:\Users\caphi\Downloads\quickrun.csv,psycho,Lentiform Loewenfeld,3.3.14,no,성적표,artifactual,same phoneme,0,None,,a,,s,None,a,0.0209999270737171,,1139.3117000116035,,7848.357099923305,0.0209999270737171,721.5087000513449,2,psycho,1024,2,48000,-16,experiment,999,odd,성냥,artifactual,,170995.7909999648,25702.940699993636,25702.83660001587,,24561.58440001309,9185.249499976637,25702.25870003924,,170264.76960000582,9260.003600036724,171834.0744000161,171834.5307999989,17109.145599999465,170478.69010001887,,171111.45009996835,170248.11809998937,Extended template,0,1.6681005945429206,69,yes,1024
0,0,0.0241757237485476,0.0241757237485476,white,yes,psycho,psycho,psycho,0,uniform,0,undefined,0,n,1,0,72,1,1,0,0,0,0,,72,0,72,72,0,72,1,72,72,Sat Dec  2 17:32:21 2023,A template containing a practice and an experimental phase,yes,언어학과심리실험_B조_기말과제용심리실험.osexp,C:\Users\caphi\Downloads,no,mono,no,18,no,black,no,no,768,psycho,69,69,0,C:\Users\caphi\Downloads\quickrun.csv,psycho,Lentiform Loewenfeld,3.3.14,no,스노우보드,artifactual,no-correlation,0,None,,a,,s,None,n,0.0242000678554177,,1139.3117000116035,,7848.357099923305,0.0242000678554177,653.730700025335,2,psycho,1024,2,48000,-16,experiment,999,odd,꽃,natural,,172678.94669994712,25702.940699993636,25702.83660001587,,24561.58440001309,9185.249499976637,25702.25870003924,,171947.67040002625,9260.003600036724,173450.26119996328,173450.76259993948,17109.145599999465,172161.7710000137,,172795.34810001496,171935.34149997868,Extended template,0,1.6923006623983383,70,yes,1024
0,0,0.0241507143175727,0.0241507143175727,white,yes,psycho,psycho,psycho,0,uniform,0,undefined,0,a,1,0,73,1,1,0,0,0,0,,73,0,73,73,0,73,1,73,73,Sat Dec  2 17:32:21 2023,A template containing a practice and an experimental phase,yes,언어학과심리실험_B조_기말과제용심리실험.osexp,C:\Users\caphi\Downloads,no,mono,no,18,no,black,no,no,768,psycho,70,70,0,C:\Users\caphi\Downloads\quickrun.csv,psycho,Lentiform Loewenfeld,3.3.14,no,향수,artifactual,no-correlation,0,None,,a,,s,None,a,0.0224000541493296,,1139.3117000116035,,7848.357099923305,0.0224000541493296,860.3572000283748,2,psycho,1024,2,48000,-16,experiment,999,odd,선풍기,artifactual,,174295.21719994955,25702.940699993636,25702.83660001587,,24561.58440001309,9185.249499976637,25702.25870003924,,173565.1760000037,9260.003600036724,175274.0286999615,175274.49740003794,17109.145599999465,173778.9032999426,,174412.5470999861,173553.9371999912,Extended template,0,1.714700716547668,71,yes,1024
0,0,0.0241708427590007,0.0241708427590007,white,yes,psycho,psycho,psycho,0,uniform,0,undefined,0,a,1,0,74,1,1,0,0,0,0,,74,0,74,74,0,74,1,74,74,Sat Dec  2 17:32:21 2023,A template containing a practice and an experimental phase,yes,언어학과심리실험_B조_기말과제용심리실험.osexp,C:\Users\caphi\Downloads,no,mono,no,18,no,black,no,no,768,psycho,71,71,0,C:\Users\caphi\Downloads\quickrun.csv,psycho,Lentiform Loewenfeld,3.3.14,no,피자,artifactual,similar-environmental,0,None,,a,,s,None,a,0.0255999621003866,,1139.3117000116035,,7848.357099923305,0.0255999621003866,2155.778900021687,2,psycho,1024,2,48000,-16,experiment,999,odd,파스타,artifactual,,176129.19819995295,25702.940699993636,25702.83660001587,,24561.58440001309,9185.249499976637,25702.25870003924,,175398.39859993663,9260.003600036724,178401.94340003654,178402.43619994726,17109.145599999465,175612.461599987,,176244.93499996606,175385.7961000176,Extended template,0,1.7403006786480546,72,yes,1024
0,0,0.0241342565197854,0.0241342565197854,white,yes,psycho,psycho,psycho,0,uniform,0,undefined,0,n,1,0,75,1,1,0,0,0,0,,75,0,75,75,0,75,1,75,75,Sat Dec  2 17:32:21 2023,A template containing a practice and an experimental phase,yes,언어학과심리실험_B조_기말과제용심리실험.osexp,C:\Users\caphi\Downloads,no,mono,no,18,no,black,no,no,768,psycho,72,72,0,C:\Users\caphi\Downloads\quickrun.csv,psycho,Lentiform Loewenfeld,3.3.14,no,모래,natural,similar-environmental,0,None,,a,,s,None,n,0.0215000472962856,,1139.3117000116035,,7848.357099923305,0.0215000472962856,859.2572000343353,2,psycho,1024,2,48000,-16,experiment,999,odd,자갈,natural,,179262.91829999536,25702.940699993636,25702.83660001587,,24561.58440001309,9185.249499976637,25702.25870003924,,178532.24019997288,9260.003600036724,180250.4886999959,180250.97059994005,17109.145599999465,178746.54930003453,,179390.09779994376,178506.63700001314,Extended template,0,1.7618007259443402,73,yes,1024
0,0,0.0241189279492843,0.0241189279492843,white,yes,psycho,psycho,psycho,0,uniform,0,undefined,0,a,1,0,76,1,1,0,0,0,0,,76,0,76,76,0,76,1,76,76,Sat Dec  2 17:32:21 2023,A template containing a practice and an experimental phase,yes,언어학과심리실험_B조_기말과제용심리실험.osexp,C:\Users\caphi\Downloads,no,mono,no,18,no,black,no,no,768,psycho,73,73,0,C:\Users\caphi\Downloads\quickrun.csv,psycho,Lentiform Loewenfeld,3.3.14,no,산,natural,similar-environmental,0,None,,a,,s,None,a,0.0229999423027038,,1139.3117000116035,,7848.357099923305,0.0229999423027038,572.7592000039294,2,psycho,1024,2,48000,-16,experiment,999,odd,오두막,artifactual,,181096.37799998745,25702.940699993636,25702.83660001587,,24561.58440001309,9185.249499976637,25702.25870003924,,180364.87539997324,9260.003600036724,181786.0082000261,181786.52590001,17109.145599999465,180579.18050000444,,181212.08369999655,180352.0109000383,Extended template,0,1.784800668247044,74,yes,1024
0,0,0.0241173415755232,0.0241173415755232,white,yes,psycho,psycho,psycho,0,uniform,0,undefined,0,n,1,0,77,1,1,0,0,0,0,,77,0,77,77,0,77,1,77,77,Sat Dec  2 17:32:21 2023,A template containing a practice and an experimental phase,yes,언어학과심리실험_B조_기말과제용심리실험.osexp,C:\Users\caphi\Downloads,no,mono,no,18,no,black,no,no,768,psycho,74,74,0,C:\Users\caphi\Downloads\quickrun.csv,psycho,Lentiform Loewenfeld,3.3.14,no,산,natural,similar-environmental,0,None,,a,,s,None,n,0.0239999499171972,,1139.3117000116035,,7848.357099923305,0.0239999499171972,903.3370999386534,2,psycho,1024,2,48000,-16,experiment,999,odd,계곡,natural,,182629.4314999832,25702.940699993636,25702.83660001587,,24561.58440001309,9185.249499976637,25702.25870003924,,181898.50489993117,9260.003600036724,183650.1802999992,183650.6769999396,17109.145599999465,182111.82380001992,,182745.4638000345,181886.2915999489,Extended template,0,1.808800618164241,75,yes,1024
0,0,0.0240960599560486,0.0240960599560486,white,yes,psycho,psycho,psycho,0,uniform,0,undefined,0,a,1,0,78,1,1,0,0,0,0,,78,0,78,78,0,78,1,78,78,Sat Dec  2 17:32:21 2023,A template containing a practice and an experimental phase,yes,언어학과심리실험_B조_기말과제용심리실험.osexp,C:\Users\caphi\Downloads,no,mono,no,18,no,black,no,no,768,psycho,75,75,0,C:\Users\caphi\Downloads\quickrun.csv,psycho,Lentiform Loewenfeld,3.3.14,no,로봇,artifactual,same phoneme,0,None,,a,,s,None,a,0.0224999384954571,,1139.3117000116035,,7848.357099923305,0.0224999384954571,645.1965000014752,2,psycho,1024,2,48000,-16,experiment,999,odd,로켓,artifactual,,184495.6958999392,25702.940699993636,25702.83660001587,,24561.58440001309,9185.249499976637,25702.25870003924,,183764.6202000324,9260.003600036724,185258.44400003552,185258.943599998,17109.145599999465,183978.75070001464,,184611.9875999866,183751.963299932,Extended template,0,1.8313005566596985,76,yes,1024
0,0,0.0241675396002345,0.0241675396002345,white,yes,psycho,psycho,psycho,0,uniform,0,undefined,0,a,1,0,79,1,1,0,0,0,0,,79,0,79,79,0,79,1,79,79,Sat Dec  2 17:32:21 2023,A template containing a practice and an experimental phase,yes,언어학과심리실험_B조_기말과제용심리실험.osexp,C:\Users\caphi\Downloads,no,mono,no,18,no,black,no,no,768,psycho,76,76,0,C:\Users\caphi\Downloads\quickrun.csv,psycho,Lentiform Loewenfeld,3.3.14,no,호수,natural,no-correlation,0,None,,a,,s,None,a,0.0295999925583601,,1139.3117000116035,,7848.357099923305,0.0295999925583601,876.1502000270411,2,psycho,1024,2,48000,-16,experiment,999,odd,화장실,artifactual,,186112.24049993325,25702.940699993636,25702.83660001587,,24561.58440001309,9185.249499976637,25702.25870003924,,185382.50139995944,9260.003600036724,187106.10720003024,187106.6127000377,17109.145599999465,185595.93109996055,,186228.88840001545,185361.17009993177,Extended template,0,1.8609005492180584,77,yes,1024
0,0,0.0241346230419973,0.0241346230419973,white,yes,psycho,psycho,psycho,0,uniform,0,undefined,0,a,1,0,80,1,1,0,0,0,0,,80,0,80,80,0,80,1,80,80,Sat Dec  2 17:32:21 2023,A template containing a practice and an experimental phase,yes,언어학과심리실험_B조_기말과제용심리실험.osexp,C:\Users\caphi\Downloads,no,mono,no,18,no,black,no,no,768,psycho,77,77,0,C:\Users\caphi\Downloads\quickrun.csv,psycho,Lentiform Loewenfeld,3.3.14,no,카메라,artifactual,inclusive,0,None,,a,,s,None,a,0.0216000480577349,,1139.3117000116035,,7848.357099923305,0.0216000480577349,850.3593999193981,2,psycho,1024,2,48000,-16,experiment,999,odd,렌즈,artifactual,,187962.59759995155,25702.940699993636,25702.83660001587,,24561.58440001309,9185.249499976637,25702.25870003924,,187232.2137999581,9260.003600036724,188930.29489996843,188930.8106999379,17109.145599999465,187445.5420000013,,188078.77170003485,187210.82629996815,Extended template,0,1.8825005972757936,78,yes,1024
0,0,0.0240962106522314,0.0240962106522314,white,yes,psycho,psycho,psycho,0,uniform,0,undefined,0,n,1,0,81,1,1,0,0,0,0,,81,0,81,81,0,81,1,81,81,Sat Dec  2 17:32:21 2023,A template containing a practice and an experimental phase,yes,언어학과심리실험_B조_기말과제용심리실험.osexp,C:\Users\caphi\Downloads,no,mono,no,18,no,black,no,no,768,psycho,78,78,0,C:\Users\caphi\Downloads\quickrun.csv,psycho,Lentiform Loewenfeld,3.3.14,no,스노우보드,artifactual,no-correlation,0,None,,a,,s,None,n,0.0211000442504882,,1139.3117000116035,,7848.357099923305,0.0211000442504882,1394.5125000318512,2,psycho,1024,2,48000,-16,experiment,999,odd,소나무,natural,,189780.2128000185,25702.940699993636,25702.83660001587,,24561.58440001309,9185.249499976637,25702.25870003924,,189048.12269995452,9260.003600036724,191290.895299986,191291.4058000315,17109.145599999465,189262.82900001388,,189895.27420001104,189031.93049994297,Extended template,0,1.9036006415262816,79,yes,1024
0,0,0.0240800087340176,0.0240800087340176,white,yes,psycho,psycho,psycho,0,uniform,0,undefined,0,n,1,0,82,1,1,0,0,0,0,,82,0,82,82,0,82,1,82,82,Sat Dec  2 17:32:21 2023,A template containing a practice and an experimental phase,yes,언어학과심리실험_B조_기말과제용심리실험.osexp,C:\Users\caphi\Downloads,no,mono,no,18,no,black,no,no,768,psycho,79,79,0,C:\Users\caphi\Downloads\quickrun.csv,psycho,Lentiform Loewenfeld,3.3.14,no,구두,artifactual,same phoneme,0,None,,a,,s,None,n,0.022800057195127,,1139.3117000116035,,7848.357099923305,0.022800057195127,1444.0354999387637,2,psycho,1024,2,48000,-16,experiment,999,odd,구름,natural,,192129.61740000173,25702.940699993636,25702.83660001587,,24561.58440001309,9185.249499976637,25702.25870003924,,191398.96459993903,9260.003600036724,193691.26839993987,193691.79940002505,17109.145599999465,191613.596900017,,192246.0428000195,191386.25650003087,Extended template,0,1.9264006987214088,80,yes,1024
0,0,0.0240493919355449,0.0240493919355449,white,yes,psycho,psycho,psycho,0,uniform,0,undefined,0,a,0,0,83,1,1,0,0,0,0,,83,0,83,83,0,83,1,83,83,Sat Dec  2 17:32:21 2023,A template containing a practice and an experimental phase,yes,언어학과심리실험_B조_기말과제용심리실험.osexp,C:\Users\caphi\Downloads,no,mono,no,18,no,black,no,no,768,psycho,80,80,0,C:\Users\caphi\Downloads\quickrun.csv,psycho,Lentiform Loewenfeld,3.3.14,no,구름,natural,same phoneme,0,None,,a,,s,None,n,0.0216000480577349,,1139.3117000116035,,7848.357099923305,0.0216000480577349,1010.8140000374988,2,psycho,1024,2,48000,-16,experiment,999,odd,구두,artifactual,,194546.10699997284,25702.940699993636,25702.83660001587,,24561.58440001309,9185.249499976637,25702.25870003924,,193815.95800002103,9260.003600036724,195674.8833999736,195675.40329997428,17109.145599999465,194030.277300044,,194662.79209998905,193791.59109992904,Extended template,0,1.948000746779144,81,yes,1024
0,0,0.0240280585386222,0.0240280585386222,white,yes,psycho,psycho,psycho,0,uniform,0,undefined,0,n,1,0,84,1,1,0,0,0,0,,84,0,84,84,0,84,1,84,84,Sat Dec  2 17:32:21 2023,A template containing a practice and an experimental phase,yes,언어학과심리실험_B조_기말과제용심리실험.osexp,C:\Users\caphi\Downloads,no,mono,no,18,no,black,no,no,768,psycho,81,81,0,C:\Users\caphi\Downloads\quickrun.csv,psycho,Lentiform Loewenfeld,3.3.14,no,전등,artifactual,no-correlation,0,None,,a,,s,None,n,0.0223000533878803,,1139.3117000116035,,7848.357099923305,0.0223000533878803,1387.2311000013724,2,psycho,1024,2,48000,-16,experiment,999,odd,소,natural,,196530.26080003477,25702.940699993636,25702.83660001587,,24561.58440001309,9185.249499976637,25702.25870003924,,195799.63469994251,9260.003600036724,198034.62259995285,198035.1424999535,17109.145599999465,196012.9616999766,,196646.26920002047,195776.57660003752,Extended template,0,1.970300800167024,82,yes,1024
0,0,0.0242012151775051,0.0242012151775051,white,yes,psycho,psycho,psycho,0,uniform,0,undefined,0,a,1,0,85,1,1,0,0,0,0,,85,0,85,85,0,85,1,85,85,Sat Dec  2 17:32:21 2023,A template containing a practice and an experimental phase,yes,언어학과심리실험_B조_기말과제용심리실험.osexp,C:\Users\caphi\Downloads,no,mono,no,18,no,black,no,no,768,psycho,82,82,0,C:\Users\caphi\Downloads\quickrun.csv,psycho,Lentiform Loewenfeld,3.3.14,no,전기,natural,similar-environmental,0,None,,a,,s,None,a,0.0384000595659017,,1139.3117000116035,,7848.357099923305,0.0384000595659017,549.1521999938414,2,psycho,1024,2,48000,-16,experiment,999,odd,전선,artifactual,,198879.9712000182,25702.940699993636,25702.83660001587,,24561.58440001309,9185.249499976637,25702.25870003924,,198148.9462000318,9260.003600036724,199546.8708999688,199547.57059994157,17109.145599999465,198363.76540001947,,198996.08369998168,198136.85939996503,Extended template,0,2.008700859732926,83,yes,1024
0,0,0.0241654869612483,0.0241654869612483,white,yes,psycho,psycho,psycho,0,uniform,0,undefined,0,a,1,0,86,1,1,0,0,0,0,,86,0,86,86,0,86,1,86,86,Sat Dec  2 17:32:21 2023,A template containing a practice and an experimental phase,yes,언어학과심리실험_B조_기말과제용심리실험.osexp,C:\Users\caphi\Downloads,no,mono,no,18,no,black,no,no,768,psycho,83,83,0,C:\Users\caphi\Downloads\quickrun.csv,psycho,Lentiform Loewenfeld,3.3.14,no,건물,artifactual,inclusive,0,None,,a,,s,None,a,0.0212000450119376,,1139.3117000116035,,7848.357099923305,0.0212000450119376,744.7487000608817,2,psycho,1024,2,48000,-16,experiment,999,odd,병원,artifactual,,200396.7606000369,25702.940699993636,25702.83660001587,,24561.58440001309,9185.249499976637,25702.25870003924,,199665.73020000945,9260.003600036724,201258.6926999502,201259.2294999631,17109.145599999465,199879.6440999722,,200512.7724999329,199654.0837000357,Extended template,0,2.0299009047448635,84,yes,1024
0,0,0.0241282464498106,0.0241282464498106,white,yes,psycho,psycho,psycho,0,uniform,0,undefined,0,a,1,0,87,1,1,0,0,0,0,,87,0,87,87,0,87,1,87,87,Sat Dec  2 17:32:21 2023,A template containing a practice and an experimental phase,yes,언어학과심리실험_B조_기말과제용심리실험.osexp,C:\Users\caphi\Downloads,no,mono,no,18,no,black,no,no,768,psycho,84,84,0,C:\Users\caphi\Downloads\quickrun.csv,psycho,Lentiform Loewenfeld,3.3.14,no,가방,artifactual,no-correlation,0,None,,a,,s,None,a,0.0210000434890389,,1139.3117000116035,,7848.357099923305,0.0210000434890389,668.2270000455901,2,psycho,1024,2,48000,-16,experiment,999,odd,기차,artifactual,,202096.27909993287,25702.940699993636,25702.83660001587,,24561.58440001309,9185.249499976637,25702.25870003924,,201365.4178000288,9260.003600036724,202882.8885999974,202883.42740002557,17109.145599999465,201578.999600024,,202213.4292999981,201355.4783000145,Extended template,0,2.0509009482339025,85,yes,1024
0,0,0.0240965231949853,0.0240965231949853,white,yes,psycho,psycho,psycho,0,uniform,0,undefined,0,n,1,0,88,1,1,0,0,0,0,,88,0,88,88,0,88,1,88,88,Sat Dec  2 17:32:21 2023,A template containing a practice and an experimental phase,yes,언어학과심리실험_B조_기말과제용심리실험.osexp,C:\Users\caphi\Downloads,no,mono,no,18,no,black,no,no,768,psycho,85,85,0,C:\Users\caphi\Downloads\quickrun.csv,psycho,Lentiform Loewenfeld,3.3.14,no,수영,artifactual,similar-environmental,0,None,,a,,s,None,n,0.0214000465348362,,1139.3117000116035,,7848.357099923305,0.0214000465348362,715.6017000088468,2,psycho,1024,2,48000,-16,experiment,999,odd,바다,natural,,203730.3854000056,25702.940699993636,25702.83660001587,,24561.58440001309,9185.249499976637,25702.25870003924,,202998.56179999188,9260.003600036724,204562.722499948,204563.26810002796,17109.145599999465,203212.84099994227,,203845.9846000187,202984.95940002613,Extended template,0,2.0723009947687387,86,yes,1024
0,0,0.0240655278722787,0.0240655278722787,white,yes,psycho,psycho,psycho,0,uniform,0,undefined,0,n,1,0,89,1,1,0,0,0,0,,89,0,89,89,0,89,1,89,89,Sat Dec  2 17:32:21 2023,A template containing a practice and an experimental phase,yes,언어학과심리실험_B조_기말과제용심리실험.osexp,C:\Users\caphi\Downloads,no,mono,no,18,no,black,no,no,768,psycho,86,86,0,C:\Users\caphi\Downloads\quickrun.csv,psycho,Lentiform Loewenfeld,3.3.14,no,가을,natural,similar-environmental,0,None,,a,,s,None,n,0.0213999301195144,,1139.3117000116035,,7848.357099923305,0.0213999301195144,845.736899995245,2,psycho,1024,2,48000,-16,experiment,999,odd,낙엽,natural,,205429.63689996395,25702.940699993636,25702.83660001587,,24561.58440001309,9185.249499976637,25702.25870003924,,204699.23020002895,9260.003600036724,206394.9550000252,206395.50159999635,17109.145599999465,204912.9476000089,,205547.95399995052,204675.4529000027,Extended template,0,2.093700924888253,87,yes,1024
0,0,0.0241659198019822,0.0241659198019822,white,yes,psycho,psycho,psycho,0,uniform,0,undefined,0,a,0,0,90,1,1,0,0,0,0,,90,0,90,90,0,90,1,90,90,Sat Dec  2 17:32:21 2023,A template containing a practice and an experimental phase,yes,언어학과심리실험_B조_기말과제용심리실험.osexp,C:\Users\caphi\Downloads,no,mono,no,18,no,black,no,no,768,psycho,87,87,0,C:\Users\caphi\Downloads\quickrun.csv,psycho,Lentiform Loewenfeld,3.3.14,no,기차,artifactual,no-correlation,0,None,,a,,s,None,n,0.0329000176861882,,1139.3117000116035,,7848.357099923305,0.0329000176861882,677.3808000143617,2,psycho,1024,2,48000,-16,experiment,999,odd,가방,artifactual,,207246.75489997023,25702.940699993636,25702.83660001587,,24561.58440001309,9185.249499976637,25702.25870003924,,206516.3801999297,9260.003600036724,208043.0139999371,208043.6973000178,17109.145599999465,206729.92319997863,,207364.14119997065,206497.2426999593,Extended template,0,2.126600942574441,88,yes,1024
0,0,0.0241809103407719,0.0241809103407719,white,yes,psycho,psycho,psycho,0,uniform,0,undefined,0,x,1,0,91,1,1,0,0,0,0,,91,0,91,91,0,91,1,91,91,Sat Dec  2 17:32:21 2023,A template containing a practice and an experimental phase,yes,언어학과심리실험_B조_기말과제용심리실험.osexp,C:\Users\caphi\Downloads,no,mono,no,18,no,black,no,no,768,psycho,88,88,0,C:\Users\caphi\Downloads\quickrun.csv,psycho,Lentiform Loewenfeld,3.3.14,no,시계,artifactual,non-word,0,None,,a,,s,None,x,0.0255000777542591,,1139.3117000116035,,7848.357099923305,0.0255000777542591,1445.3171999193728,2,psycho,1024,2,48000,-16,experiment,999,odd,책솜,non-word,,208896.48450003008,25702.940699993636,25702.83660001587,,24561.58440001309,9185.249499976637,25702.25870003924,,208166.77929996516,9260.003600036724,210459.20129993465,210459.7634000238,17109.145599999465,208379.97769995127,,209012.4481000239,208140.98160003775,Extended template,0,2.1521010203287005,89,yes,1024
0,0,0.0241711231259008,0.0241711231259008,white,yes,psycho,psycho,psycho,0,uniform,0,undefined,0,a,1,0,92,1,1,0,0,0,0,,92,0,92,92,0,92,1,92,92,Sat Dec  2 17:32:21 2023,A template containing a practice and an experimental phase,yes,언어학과심리실험_B조_기말과제용심리실험.osexp,C:\Users\caphi\Downloads,no,mono,no,18,no,black,no,no,768,psycho,89,89,0,C:\Users\caphi\Downloads\quickrun.csv,psycho,Lentiform Loewenfeld,3.3.14,no,바다,natural,same phoneme,0,None,,a,,s,None,a,0.0233000610023736,,1139.3117000116035,,7848.357099923305,0.0233000610023736,1427.71580000408,2,psycho,1024,2,48000,-16,experiment,999,odd,바구니,artifactual,,211312.7884999849,25702.940699993636,25702.83660001587,,24561.58440001309,9185.249499976637,25702.25870003924,,210583.6404999718,9260.003600036724,212858.772699954,212859.3643000349,17109.145599999465,210796.40709992964,,211429.83669997196,210560.29089994263,Extended template,0,2.1754010813310742,90,yes,1024
0,0,0.0241516595501657,0.0241516595501657,white,yes,psycho,psycho,psycho,0,uniform,0,undefined,0,a,1,0,93,1,1,0,0,0,0,,93,0,93,93,0,93,1,93,93,Sat Dec  2 17:32:21 2023,A template containing a practice and an experimental phase,yes,언어학과심리실험_B조_기말과제용심리실험.osexp,C:\Users\caphi\Downloads,no,mono,no,18,no,black,no,no,768,psycho,90,90,0,C:\Users\caphi\Downloads\quickrun.csv,psycho,Lentiform Loewenfeld,3.3.14,no,학적,artifactual,same phoneme,0,None,,a,,s,None,a,0.0223999377340078,,1139.3117000116035,,7848.357099923305,0.0223999377340078,796.6939000179991,2,psycho,1024,2,48000,-16,experiment,999,odd,학술,artifactual,,213713.66699994545,25702.940699993636,25702.83660001587,,24561.58440001309,9185.249499976637,25702.25870003924,,212982.94399993028,9260.003600036724,214627.7686000103,214628.3637000015,17109.145599999465,213196.9631999964,,213829.75559995972,212960.41860000696,Extended template,0,2.197801019065082,91,yes,1024
0,0,0.0241424030442114,0.0241424030442114,white,yes,psycho,psycho,psycho,0,uniform,0,undefined,0,a,1,0,94,1,1,0,0,0,0,,94,0,94,94,0,94,1,94,94,Sat Dec  2 17:32:21 2023,A template containing a practice and an experimental phase,yes,언어학과심리실험_B조_기말과제용심리실험.osexp,C:\Users\caphi\Downloads,no,mono,no,18,no,black,no,no,768,psycho,91,91,0,C:\Users\caphi\Downloads\quickrun.csv,psycho,Lentiform Loewenfeld,3.3.14,no,구름,natural,same phoneme,0,None,,a,,s,None,a,0.0233000610023736,,1139.3117000116035,,7848.357099923305,0.0233000610023736,1188.4577999589965,2,psycho,1024,2,48000,-16,experiment,999,odd,구슬,artifactual,,215480.0764999818,25702.940699993636,25702.83660001587,,24561.58440001309,9185.249499976637,25702.25870003924,,214750.37309993056,9260.003600036724,216786.8422999745,216787.466699956,17109.145599999465,214964.03349994216,,215597.14700002223,214728.63200004213,Extended template,0,2.221101080067456,92,yes,1024
0,0,0.024124742135085,0.024124742135085,white,yes,psycho,psycho,psycho,0,uniform,0,undefined,0,a,1,0,95,1,1,0,0,0,0,,95,0,95,95,0,95,1,95,95,Sat Dec  2 17:32:21 2023,A template containing a practice and an experimental phase,yes,언어학과심리실험_B조_기말과제용심리실험.osexp,C:\Users\caphi\Downloads,no,mono,no,18,no,black,no,no,768,psycho,92,92,0,C:\Users\caphi\Downloads\quickrun.csv,psycho,Lentiform Loewenfeld,3.3.14,no,안음풍,non-word,non-word,0,None,,a,,s,None,a,0.0224999384954571,,1139.3117000116035,,7848.357099923305,0.0224999384954571,998.649699962698,2,psycho,1024,2,48000,-16,experiment,999,odd,의자,artifactual,,217630.4478000384,25702.940699993636,25702.83660001587,,24561.58440001309,9185.249499976637,25702.25870003924,,216899.068800034,9260.003600036724,218747.11019999813,218747.71719996352,17109.145599999465,217113.19449997973,,217747.21389997285,216888.9922000235,Extended template,0,2.243601018562913,93,yes,1024
0,0,0.0241180953688602,0.0241180953688602,white,yes,psycho,psycho,psycho,0,uniform,0,undefined,0,a,1,0,96,1,1,0,0,0,0,,96,0,96,96,0,96,1,96,96,Sat Dec  2 17:32:21 2023,A template containing a practice and an experimental phase,yes,언어학과심리실험_B조_기말과제용심리실험.osexp,C:\Users\caphi\Downloads,no,mono,no,18,no,black,no,no,768,psycho,93,93,0,C:\Users\caphi\Downloads\quickrun.csv,psycho,Lentiform Loewenfeld,3.3.14,no,벌레,natural,same phoneme,0,None,,a,,s,None,a,0.0234999461099505,,1139.3117000116035,,7848.357099923305,0.0234999461099505,1264.2998000374064,2,psycho,1024,2,48000,-16,experiment,999,odd,발레,artifactual,,219613.6181999464,25702.940699993636,25702.83660001587,,24561.58440001309,9185.249499976637,25702.25870003924,,218883.42059997376,9260.003600036724,220995.92060002036,220996.53959996067,17109.145599999465,219097.06019994337,,219730.2380999317,218863.8008999405,Extended template,0,2.2671009646728635,94,yes,1024
0,0,0.0240989580848499,0.0240989580848499,white,yes,psycho,psycho,psycho,0,uniform,0,undefined,0,n,1,0,97,1,1,0,0,0,0,,97,0,97,97,0,97,1,97,97,Sat Dec  2 17:32:21 2023,A template containing a practice and an experimental phase,yes,언어학과심리실험_B조_기말과제용심리실험.osexp,C:\Users\caphi\Downloads,no,mono,no,18,no,black,no,no,768,psycho,94,94,0,C:\Users\caphi\Downloads\quickrun.csv,psycho,Lentiform Loewenfeld,3.3.14,no,소방서,artifactual,same phoneme,0,None,,a,,s,None,n,0.0223000533878803,,1139.3117000116035,,7848.357099923305,0.0223000533878803,4086.8373999837786,2,psycho,1024,2,48000,-16,experiment,999,odd,소나무,natural,,221856.3466999913,25702.940699993636,25702.83660001587,,24561.58440001309,9185.249499976637,25702.25870003924,,221116.5994999465,9260.003600036724,226052.067099954,226052.6599000441,17109.145599999465,221330.4341000039,,221963.3716000244,221097.5771000376,Extended template,0,2.289401018060744,95,yes,1024
0,0,0.0240698027482721,0.0240698027482721,white,yes,psycho,psycho,psycho,0,uniform,0,undefined,0,n,1,0,98,1,1,0,0,0,0,,98,0,98,98,0,98,1,98,98,Sat Dec  2 17:32:21 2023,A template containing a practice and an experimental phase,yes,언어학과심리실험_B조_기말과제용심리실험.osexp,C:\Users\caphi\Downloads,no,mono,no,18,no,black,no,no,768,psycho,95,95,0,C:\Users\caphi\Downloads\quickrun.csv,psycho,Lentiform Loewenfeld,3.3.14,no,바다,natural,same phoneme,0,None,,a,,s,None,n,0.0213000457733869,,1139.3117000116035,,7848.357099923305,0.0213000457733869,852.1562999812886,2,psycho,1024,2,48000,-16,experiment,999,odd,바퀴벌레,natural,,226901.046999963,25702.940699993636,25702.83660001587,,24561.58440001309,9185.249499976637,25702.25870003924,,226166.38289997357,9260.003600036724,227867.68999998455,227868.28299995977,17109.145599999465,226379.97819995508,,227014.23159998376,226155.979400035,Extended template,0,2.3107010638341308,96,yes,1024
0,0,0.0240989797508593,0.0240989797508593,white,yes,psycho,psycho,psycho,0,uniform,0,undefined,0,a,1,0,99,1,1,0,0,0,0,,99,0,99,99,0,99,1,99,99,Sat Dec  2 17:32:21 2023,A template containing a practice and an experimental phase,yes,언어학과심리실험_B조_기말과제용심리실험.osexp,C:\Users\caphi\Downloads,no,mono,no,18,no,black,no,no,768,psycho,96,96,0,C:\Users\caphi\Downloads\quickrun.csv,psycho,Lentiform Loewenfeld,3.3.14,no,도미노,artifactual,same phoneme,0,None,,a,,s,None,a,0.026899971999228,,1139.3117000116035,,7848.357099923305,0.026899971999228,827.2698000073433,2,psycho,1024,2,48000,-16,experiment,999,odd,도서,artifactual,,228729.98760000337,25702.940699993636,25702.83660001587,,24561.58440001309,9185.249499976637,25702.25870003924,,227999.55750000663,9260.003600036724,229675.3925000085,229676.06099997647,17109.145599999465,228213.603500044,,228846.71349998095,227978.83070004173,Extended template,0,2.3376010358333588,97,yes,1024
0,0,0.0240857254390661,0.0240857254390661,white,yes,psycho,psycho,psycho,0,uniform,0,undefined,0,a,1,0,100,1,1,0,0,0,0,,100,0,100,100,0,100,1,100,100,Sat Dec  2 17:32:21 2023,A template containing a practice and an experimental phase,yes,언어학과심리실험_B조_기말과제용심리실험.osexp,C:\Users\caphi\Downloads,no,mono,no,18,no,black,no,no,768,psycho,97,97,0,C:\Users\caphi\Downloads\quickrun.csv,psycho,Lentiform Loewenfeld,3.3.14,no,악어,natural,same phoneme,0,None,,a,,s,None,a,0.022800057195127,,1139.3117000116035,,7848.357099923305,0.022800057195127,796.0384000325575,2,psycho,1024,2,48000,-16,experiment,999,odd,악기,artifactual,,230530.55799996943,25702.940699993636,25702.83660001587,,24561.58440001309,9185.249499976637,25702.25870003924,,229799.80409995187,9260.003600036724,231443.841899978,231444.5429999614,17109.145599999465,230014.0693000285,,230646.48039999884,229776.8268999644,Extended template,0,2.3604010930284858,98,yes,1024
0,0,0.0240636467369216,0.0240636467369216,white,yes,psycho,psycho,psycho,0,uniform,0,undefined,0,a,1,0,101,1,1,0,0,0,0,,101,0,101,101,0,101,1,101,101,Sat Dec  2 17:32:21 2023,A template containing a practice and an experimental phase,yes,언어학과심리실험_B조_기말과제용심리실험.osexp,C:\Users\caphi\Downloads,no,mono,no,18,no,black,no,no,768,psycho,98,98,0,C:\Users\caphi\Downloads\quickrun.csv,psycho,Lentiform Loewenfeld,3.3.14,no,컴퓨터,artifactual,similar-environmental,0,None,,a,,s,None,a,0.0218999339267611,,1139.3117000116035,,7848.357099923305,0.0218999339267611,692.3614999977872,2,psycho,1024,2,48000,-16,experiment,999,odd,키보드,artifactual,,232297.8457999416,25702.940699993636,25702.83660001587,,24561.58440001309,9185.249499976637,25702.25870003924,,231567.15310004077,9260.003600036724,233107.633800013,233108.25509997085,17109.145599999465,231780.76320001853,,232413.8927999884,231545.39730004035,Extended template,0,2.382301026955247,99,yes,1024
0,0,0.024046009639278,0.024046009639278,white,yes,psycho,psycho,psycho,0,uniform,0,undefined,0,x,1,0,102,1,1,0,0,0,0,,102,0,102,102,0,102,1,102,102,Sat Dec  2 17:32:21 2023,A template containing a practice and an experimental phase,yes,언어학과심리실험_B조_기말과제용심리실험.osexp,C:\Users\caphi\Downloads,no,mono,no,18,no,black,no,no,768,psycho,99,99,0,C:\Users\caphi\Downloads\quickrun.csv,psycho,Lentiform Loewenfeld,3.3.14,no,폭풍,natural,non-word,0,None,,a,,s,None,x,0.0222999369725585,,1139.3117000116035,,7848.357099923305,0.0222999369725585,817.8803999908268,2,psycho,1024,2,48000,-16,experiment,999,odd,섬강,non-word,,233963.98649993356,25702.940699993636,25702.83660001587,,24561.58440001309,9185.249499976637,25702.25870003924,,233233.3683000179,9260.003600036724,234899.51190003197,234900.170500041,17109.145599999465,233446.8889000127,,234080.3207999561,233210.0264999317,Extended template,0,2.404600963927805,100,yes,1024
0,0,0.0240277328371706,0.0240277328371706,white,yes,psycho,psycho,psycho,0,uniform,0,undefined,0,n,1,0,103,1,1,0,0,0,0,,103,0,103,103,0,103,1,103,103,Sat Dec  2 17:32:21 2023,A template containing a practice and an experimental phase,yes,언어학과심리실험_B조_기말과제용심리실험.osexp,C:\Users\caphi\Downloads,no,mono,no,18,no,black,no,no,768,psycho,100,100,0,C:\Users\caphi\Downloads\quickrun.csv,psycho,Lentiform Loewenfeld,3.3.14,no,상새고,non-word,non-word,0,None,,a,,s,None,n,0.0222000526264309,,1139.3117000116035,,7848.357099923305,0.0222000526264309,747.4432000890374,2,psycho,1024,2,48000,-16,experiment,999,odd,나뭇잎,natural,,235747.58700001985,25702.940699993636,25702.83660001587,,24561.58440001309,9185.249499976637,25702.25870003924,,235016.51959994345,9260.003600036724,236612.2766999761,236612.90229996663,17109.145599999465,235230.36179994236,,235863.52639994584,234995.29819993768,Extended template,0,2.4268010165542364,101,yes,1024
0,0,0.0240254996563581,0.0240254996563581,white,yes,psycho,psycho,psycho,0,uniform,0,undefined,0,n,1,0,104,1,1,0,0,0,0,,104,0,104,104,0,104,1,104,104,Sat Dec  2 17:32:21 2023,A template containing a practice and an experimental phase,yes,언어학과심리실험_B조_기말과제용심리실험.osexp,C:\Users\caphi\Downloads,no,mono,no,18,no,black,no,no,768,psycho,101,101,0,C:\Users\caphi\Downloads\quickrun.csv,psycho,Lentiform Loewenfeld,3.3.14,no,숲,natural,inclusive,0,None,,a,,s,None,n,0.0237999483942985,,1139.3117000116035,,7848.357099923305,0.0237999483942985,869.584699976258,2,psycho,1024,2,48000,-16,experiment,999,odd,나무,natural,,237463.95380003375,25702.940699993636,25702.83660001587,,24561.58440001309,9185.249499976637,25702.25870003924,,236734.30090001784,9260.003600036724,238451.6098999884,238452.25790003315,17109.145599999465,236947.14880001263,,237580.74310002849,236715.48060001805,Extended template,0,2.450600964948535,102,yes,1024
0,0,0.0240009795711601,0.0240009795711601,white,yes,psycho,psycho,psycho,0,uniform,0,undefined,0,a,1,0,105,1,1,0,0,0,0,,105,0,105,105,0,105,1,105,105,Sat Dec  2 17:32:21 2023,A template containing a practice and an experimental phase,yes,언어학과심리실험_B조_기말과제용심리실험.osexp,C:\Users\caphi\Downloads,no,mono,no,18,no,black,no,no,768,psycho,102,102,0,C:\Users\caphi\Downloads\quickrun.csv,psycho,Lentiform Loewenfeld,3.3.14,no,성냥,artifactual,same phoneme,0,None,,a,,s,None,a,0.0214999308809638,,1139.3117000116035,,7848.357099923305,0.0214999308809638,660.9745000023395,2,psycho,1024,2,48000,-16,experiment,999,odd,성적표,artifactual,,239297.9078999488,25702.940699993636,25702.83660001587,,24561.58440001309,9185.249499976637,25702.25870003924,,238567.1163999941,9260.003600036724,240075.65010001417,240076.27970003523,17109.145599999465,238781.8998999428,,239413.47289993428,238554.8630999401,Extended template,0,2.4721008958294988,103,yes,1024
