acc,accuracy,average_response_time,avg_rt,background,bidi,canvas_backend,clock_backend,color_backend,compensation,coordinates,correct,correct_instructions,correct_keyboard_response,correct_response,correct_target,count_about_this_template,count_blank,count_block_loop,count_block_sequence,count_end_of_experiment,count_end_of_practice,count_experiment,count_experimental_loop,count_feedback,count_fixation,count_instructions,count_keyboard_response,count_logger,count_practice_loop,count_prime,count_reset_feedback,count_target,count_trial_sequence,datetime,description,disable_garbage_collection,experiment_file,experiment_path,font_bold,font_family,font_italic,font_size,font_underline,foreground,form_clicks,fullscreen,height,keyboard_backend,live_row,live_row_block_loop,live_row_practice_loop,logfile,mouse_backend,opensesame_codename,opensesame_version,practice,prime,prime_condition,relation,repeat_cycle,response,response_end_of_experiment,response_end_of_practice,response_feedback,response_instructions,response_keyboard_response,response_target,response_time,response_time_end_of_experiment,response_time_end_of_practice,response_time_feedback,response_time_instructions,response_time_keyboard_response,response_time_target,round_decimals,sampler_backend,sound_buf_size,sound_channels,sound_freq,sound_sample_size,start,subject_nr,subject_parity,target,target_condition,time_about_this_template,time_blank,time_block_loop,time_block_sequence,time_end_of_experiment,time_end_of_practice,time_experiment,time_experimental_loop,time_feedback,time_fixation,time_instructions,time_keyboard_response,time_logger,time_practice_loop,time_prime,time_reset_feedback,time_target,time_trial_sequence,title,total_correct,total_response_time,total_responses,uniform_coordinates,width
0,0,0.0217000488191843,0.0217000488191843,white,yes,psycho,psycho,psycho,0,uniform,0,undefined,0,x,1,0,0,0,0,0,0,0,0,,0,0,0,0,0,0,0,0,0,Sat Dec  2 17:36:55 2023,A template containing a practice and an experimental phase,yes,언어학과심리실험_B조_기말과제용심리실험.osexp,C:\Users\caphi\Downloads,no,mono,no,18,no,black,no,no,768,psycho,0,0,0,C:\Users\caphi\Downloads\quickrun.csv,psycho,Lentiform Loewenfeld,3.3.14,yes,폭풍,natural,non-word,0,None,,,,g,None,x,0.0217000488191843,,,,76295.86059995927,0.0217000488191843,3407.222900073976,2,psycho,1024,2,48000,-16,experiment,999,odd,섬강,non-word,,81142.83260004595,80340.06750001572,80339.9633000372,,,3989.4304999616,,,80408.65520003717,4042.948700021952,84667.24099998828,84667.35350003,80339.3990000477,80625.76369999442,,81259.20109997969,80389.03039996512,Extended template,0,0.0217000488191843,1,yes,1024
0,0,0.0215499894693493,0.0215499894693493,white,yes,psycho,psycho,psycho,0,uniform,0,undefined,0,x,0,0,1,0,0,0,0,0,0,,1,0,1,1,0,1,0,1,1,Sat Dec  2 17:36:55 2023,A template containing a practice and an experimental phase,yes,언어학과심리실험_B조_기말과제용심리실험.osexp,C:\Users\caphi\Downloads,no,mono,no,18,no,black,no,no,768,psycho,1,1,0,C:\Users\caphi\Downloads\quickrun.csv,psycho,Lentiform Loewenfeld,3.3.14,yes,절벽,natural,non-word,0,None,,,,g,None,a,0.0213999301195144,,,,76295.86059995927,0.0213999301195144,13016.030800063165,2,psycho,1024,2,48000,-16,experiment,999,odd,물로프,non-word,,85526.70559997205,80340.06750001572,80339.9633000372,,,3989.4304999616,,,84792.94039995875,4042.948700021952,98659.46720005012,98659.58199999297,80339.3990000477,85009.57190000918,,85642.77489995584,84774.62299994659,Extended template,0,0.0430999789386987,2,yes,1024
0,0,0.0229999811078111,0.0229999811078111,white,yes,psycho,psycho,psycho,0,uniform,0,undefined,0,n,1,0,2,0,0,0,0,0,0,,2,0,2,2,0,2,0,2,2,Sat Dec  2 17:36:55 2023,A template containing a practice and an experimental phase,yes,언어학과심리실험_B조_기말과제용심리실험.osexp,C:\Users\caphi\Downloads,no,mono,no,18,no,black,no,no,768,psycho,2,2,0,C:\Users\caphi\Downloads\quickrun.csv,psycho,Lentiform Loewenfeld,3.3.14,yes,상새고,non-word,non-word,0,None,,,,g,None,n,0.0258999643847346,,,,76295.86059995927,0.0258999643847346,2256.6639999859035,2,psycho,1024,2,48000,-16,experiment,999,odd,나뭇잎,natural,,99509.88469994628,80340.06750001572,80339.9633000372,,,3989.4304999616,,,98779.79950001463,4042.948700021952,101884.25350002944,101884.39599995036,80339.3990000477,98993.61999996472,,99626.77820003591,98762.4960000394,Extended template,0,0.0689999433234334,3,yes,1024
0,0,0.0219999346882104,0.0219999346882104,white,yes,psycho,psycho,psycho,0,uniform,0,undefined,0,a,1,0,3,1,1,0,0,0,0,,3,0,3,3,0,3,1,3,3,Sat Dec  2 17:36:55 2023,A template containing a practice and an experimental phase,yes,언어학과심리실험_B조_기말과제용심리실험.osexp,C:\Users\caphi\Downloads,no,mono,no,18,no,black,no,no,768,psycho,0,0,0,C:\Users\caphi\Downloads\quickrun.csv,psycho,Lentiform Loewenfeld,3.3.14,no,로봇,artifactual,same phoneme,0,None,,n,,g,None,a,0.0219999346882104,,2726.412099902518,,76295.86059995927,0.0219999346882104,4767.652899958193,2,psycho,1024,2,48000,-16,experiment,999,odd,로켓,artifactual,,105543.5228999704,104757.1177999489,104756.9674999686,,102029.28450005128,3989.4304999616,104756.35849998798,,104809.60499995854,4042.948700021952,110427.84320004284,110427.97640000936,80339.3990000477,105026.3385999715,,105659.55209999812,104794.66540005524,Extended template,0,0.0219999346882104,1,yes,1024
0,0,0.0234499457292258,0.0234499457292258,white,yes,psycho,psycho,psycho,0,uniform,0,undefined,0,n,1,0,4,1,1,0,0,0,0,,4,0,4,4,0,4,1,4,4,Sat Dec  2 17:36:55 2023,A template containing a practice and an experimental phase,yes,언어학과심리실험_B조_기말과제용심리실험.osexp,C:\Users\caphi\Downloads,no,mono,no,18,no,black,no,no,768,psycho,1,1,0,C:\Users\caphi\Downloads\quickrun.csv,psycho,Lentiform Loewenfeld,3.3.14,no,풍차,artifactual,no-correlation,0,None,,n,,g,None,n,0.0248999567702412,,2726.412099902518,,76295.86059995927,0.0248999567702412,2146.0272000404075,2,psycho,1024,2,48000,-16,experiment,999,odd,흙,natural,,111276.91639994735,104757.1177999489,104756.9674999686,,102029.28450005128,3989.4304999616,104756.35849998798,,110546.82149994189,4042.948700021952,113540.32310005276,113540.46980000568,80339.3990000477,110760.02739998512,,111393.50989996456,110529.96239997448,Extended template,0,0.0468998914584517,2,yes,1024
0,0,0.0230332758898536,0.0230332758898536,white,yes,psycho,psycho,psycho,0,uniform,0,undefined,0,a,1,0,5,1,1,0,0,0,0,,5,0,5,5,0,5,1,5,5,Sat Dec  2 17:36:55 2023,A template containing a practice and an experimental phase,yes,언어학과심리실험_B조_기말과제용심리실험.osexp,C:\Users\caphi\Downloads,no,mono,no,18,no,black,no,no,768,psycho,2,2,0,C:\Users\caphi\Downloads\quickrun.csv,psycho,Lentiform Loewenfeld,3.3.14,no,키보드,artifactual,similar-environmental,0,None,,n,,g,None,a,0.0221999362111091,,2726.412099902518,,76295.86059995927,0.0221999362111091,309.23129990696907,2,psycho,1024,2,48000,-16,experiment,999,odd,컴퓨터,artifactual,,114393.62959994467,104757.1177999489,104756.9674999686,,102029.28450005128,3989.4304999616,104756.35849998798,,113663.42819994316,4042.948700021952,114820.60910004655,114820.73829998262,80339.3990000477,113877.66009999903,,114510.66150004044,113643.10989994556,Extended template,0,0.0690998276695609,3,yes,1024
0,0,0.0225999683607369,0.0225999683607369,white,yes,psycho,psycho,psycho,0,uniform,0,undefined,0,a,1,0,6,1,1,0,0,0,0,,6,0,6,6,0,6,1,6,6,Sat Dec  2 17:36:55 2023,A template containing a practice and an experimental phase,yes,언어학과심리실험_B조_기말과제용심리실험.osexp,C:\Users\caphi\Downloads,no,mono,no,18,no,black,no,no,768,psycho,3,3,0,C:\Users\caphi\Downloads\quickrun.csv,psycho,Lentiform Loewenfeld,3.3.14,no,피자,artifactual,similar-environmental,0,None,,n,,g,None,a,0.0213000457733869,,2726.412099902518,,76295.86059995927,0.0213000457733869,370.9076999220997,2,psycho,1024,2,48000,-16,experiment,999,odd,파스타,artifactual,,115677.60399996769,104757.1177999489,104756.9674999686,,102029.28450005128,3989.4304999616,104756.35849998798,,114946.54439995064,4042.948700021952,116164.71489996184,116164.84610002954,80339.3990000477,115159.77499994916,,115793.11720002444,114924.3220000062,Extended template,0,0.0903998734429478,4,yes,1024
0,0,0.0225799856707453,0.0225799856707453,white,yes,psycho,psycho,psycho,0,uniform,0,undefined,0,n,1,0,7,1,1,0,0,0,0,,7,0,7,7,0,7,1,7,7,Sat Dec  2 17:36:55 2023,A template containing a practice and an experimental phase,yes,언어학과심리실험_B조_기말과제용심리실험.osexp,C:\Users\caphi\Downloads,no,mono,no,18,no,black,no,no,768,psycho,4,4,0,C:\Users\caphi\Downloads\quickrun.csv,psycho,Lentiform Loewenfeld,3.3.14,no,수영,artifactual,similar-environmental,0,None,,n,,g,None,n,0.022500054910779,,2726.412099902518,,76295.86059995927,0.022500054910779,1373.011999996379,2,psycho,1024,2,48000,-16,experiment,999,odd,바다,natural,,117010.75799996032,104757.1177999489,104756.9674999686,,102029.28450005128,3989.4304999616,104756.35849998798,,116280.10299999733,4042.948700021952,118500.39599998854,118500.53670001216,80339.3990000477,116493.64420003258,,117126.55679997988,116265.76169999316,Extended template,0,0.1128999283537268,5,yes,1024
0,0,0.0223833097455402,0.0223833097455402,white,yes,psycho,psycho,psycho,0,uniform,0,undefined,0,n,0,0,8,1,1,0,0,0,0,,8,0,8,8,0,8,1,8,8,Sat Dec  2 17:36:55 2023,A template containing a practice and an experimental phase,yes,언어학과심리실험_B조_기말과제용심리실험.osexp,C:\Users\caphi\Downloads,no,mono,no,18,no,black,no,no,768,psycho,5,5,0,C:\Users\caphi\Downloads\quickrun.csv,psycho,Lentiform Loewenfeld,3.3.14,no,보트,artifactual,same phoneme,0,None,,n,,g,None,a,0.0213999301195144,,2726.412099902518,,76295.86059995927,0.0213999301195144,2703.3109000185505,2,psycho,1024,2,48000,-16,experiment,999,odd,보름달,natural,,119343.373300042,104757.1177999489,104756.9674999686,,102029.28450005128,3989.4304999616,104756.35849998798,,118612.58129996712,4042.948700021952,122164.35810003895,122164.51200004668,80339.3990000477,118827.30490004178,,119460.24939999916,118601.24720004389,Extended template,0,0.1342998584732413,6,yes,1024
0,0,0.0229285630796636,0.0229285630796636,white,yes,psycho,psycho,psycho,0,uniform,0,undefined,0,a,1,0,9,1,1,0,0,0,0,,9,0,9,9,0,9,1,9,9,Sat Dec  2 17:36:55 2023,A template containing a practice and an experimental phase,yes,언어학과심리실험_B조_기말과제용심리실험.osexp,C:\Users\caphi\Downloads,no,mono,no,18,no,black,no,no,768,psycho,6,6,0,C:\Users\caphi\Downloads\quickrun.csv,psycho,Lentiform Loewenfeld,3.3.14,no,불,natural,similar-environmental,0,None,,n,,g,None,a,0.0262000830844044,,2726.412099902518,,76295.86059995927,0.0262000830844044,1724.2466999450698,2,psycho,1024,2,48000,-16,experiment,999,odd,소화기,artifactual,,123011.57039997634,104757.1177999489,104756.9674999686,,102029.28450005128,3989.4304999616,104756.35849998798,,122279.52960005496,4042.948700021952,124852.46059997009,124852.6507000206,80339.3990000477,122493.62870003095,,123127.4988000514,122266.51590003166,Extended template,0,0.1604999415576458,7,yes,1024
0,0,0.0233874889090657,0.0233874889090657,white,yes,psycho,psycho,psycho,0,uniform,0,undefined,0,n,0,0,10,1,1,0,0,0,0,,10,0,10,10,0,10,1,10,10,Sat Dec  2 17:36:55 2023,A template containing a practice and an experimental phase,yes,언어학과심리실험_B조_기말과제용심리실험.osexp,C:\Users\caphi\Downloads,no,mono,no,18,no,black,no,no,768,psycho,7,7,0,C:\Users\caphi\Downloads\quickrun.csv,psycho,Lentiform Loewenfeld,3.3.14,no,전등,artifactual,no-correlation,0,None,,n,,g,None,c,0.0265999697148799,,2726.412099902518,,76295.86059995927,0.0265999697148799,3616.842800052837,2,psycho,1024,2,48000,-16,experiment,999,odd,소,natural,,125693.93900001889,104757.1177999489,104756.9674999686,,102029.28450005128,3989.4304999616,104756.35849998798,,124962.56869996432,4042.948700021952,129428.39120002463,129428.58189996332,80339.3990000477,125177.09390004164,,125810.78319996595,124954.04199999756,Extended template,0,0.1870999112725258,8,yes,1024
0,0,0.0233111075229114,0.0233111075229114,white,yes,psycho,psycho,psycho,0,uniform,0,undefined,0,a,0,0,11,1,1,0,0,0,0,,11,0,11,11,0,11,1,11,11,Sat Dec  2 17:36:55 2023,A template containing a practice and an experimental phase,yes,언어학과심리실험_B조_기말과제용심리실험.osexp,C:\Users\caphi\Downloads,no,mono,no,18,no,black,no,no,768,psycho,8,8,0,C:\Users\caphi\Downloads\quickrun.csv,psycho,Lentiform Loewenfeld,3.3.14,no,바다,natural,similar-environmental,0,None,,n,,g,None,n,0.0227000564336776,,2726.412099902518,,76295.86059995927,0.0227000564336776,361.82520003058016,2,psycho,1024,2,48000,-16,experiment,999,odd,배,artifactual,,130294.44740002508,104757.1177999489,104756.9674999686,,102029.28450005128,3989.4304999616,104756.35849998798,,129564.67760005036,4042.948700021952,130773.00709998237,130773.17009994294,80339.3990000477,129777.45519997552,,130410.43289995288,129540.19740002695,Extended template,0,0.2097999677062034,9,yes,1024
0,0,0.0233299913816154,0.0233299913816154,white,yes,psycho,psycho,psycho,0,uniform,0,undefined,0,a,0,0,12,1,1,0,0,0,0,,12,0,12,12,0,12,1,12,12,Sat Dec  2 17:36:55 2023,A template containing a practice and an experimental phase,yes,언어학과심리실험_B조_기말과제용심리실험.osexp,C:\Users\caphi\Downloads,no,mono,no,18,no,black,no,no,768,psycho,9,9,0,C:\Users\caphi\Downloads\quickrun.csv,psycho,Lentiform Loewenfeld,3.3.14,no,구름,natural,same phoneme,0,None,,n,,g,None,n,0.0234999461099505,,2726.412099902518,,76295.86059995927,0.0234999461099505,164.33150006923825,2,psycho,1024,2,48000,-16,experiment,999,odd,구두,artifactual,,131628.10229999013,104757.1177999489,104756.9674999686,,102029.28450005128,3989.4304999616,104756.35849998798,,130897.67460001168,4042.948700021952,131908.61959999893,131908.7875999976,80339.3990000477,131110.54579995107,,131743.42199997045,130873.96730005275,Extended template,0,0.233299913816154,10,yes,1024
0,0,0.0232454410500147,0.0232454410500147,white,yes,psycho,psycho,psycho,0,uniform,0,undefined,0,a,1,0,13,1,1,0,0,0,0,,13,0,13,13,0,13,1,13,13,Sat Dec  2 17:36:55 2023,A template containing a practice and an experimental phase,yes,언어학과심리실험_B조_기말과제용심리실험.osexp,C:\Users\caphi\Downloads,no,mono,no,18,no,black,no,no,768,psycho,10,10,0,C:\Users\caphi\Downloads\quickrun.csv,psycho,Lentiform Loewenfeld,3.3.14,no,선설수,non-word,non-word,0,None,,n,,g,None,a,0.0223999377340078,,2726.412099902518,,76295.86059995927,0.0223999377340078,2110.4434999870136,2,psycho,1024,2,48000,-16,experiment,999,odd,시계,artifactual,,132761.3946000347,104757.1177999489,104756.9674999686,,102029.28450005128,3989.4304999616,104756.35849998798,,132030.06290004123,4042.948700021952,134989.60560001433,134989.78149995673,80339.3990000477,132244.2837000126,,132878.3318999922,132010.47490001656,Extended template,0,0.2556998515501618,11,yes,1024
0,0,0.023433327442035,0.023433327442035,white,yes,psycho,psycho,psycho,0,uniform,0,undefined,0,n,1,0,14,1,1,0,0,0,0,,14,0,14,14,0,14,1,14,14,Sat Dec  2 17:36:55 2023,A template containing a practice and an experimental phase,yes,언어학과심리실험_B조_기말과제용심리실험.osexp,C:\Users\caphi\Downloads,no,mono,no,18,no,black,no,no,768,psycho,11,11,0,C:\Users\caphi\Downloads\quickrun.csv,psycho,Lentiform Loewenfeld,3.3.14,no,밤하늘,natural,no-correlation,0,None,,n,,g,None,n,0.0255000777542591,,2726.412099902518,,76295.86059995927,0.0255000777542591,3188.4499000152573,2,psycho,1024,2,48000,-16,experiment,999,odd,바위,natural,,135827.3928000126,104757.1177999489,104756.9674999686,,102029.28450005128,3989.4304999616,104756.35849998798,,135097.7010000497,4042.948700021952,139133.41909996234,139133.67929996457,80339.3990000477,135310.97410002258,,135944.13419999182,135086.33069996722,Extended template,0,0.2811999293044209,12,yes,1024
0,0,0.0232769122633796,0.0232769122633796,white,yes,psycho,psycho,psycho,0,uniform,0,undefined,0,n,1,0,15,1,1,0,0,0,0,,15,0,15,15,0,15,1,15,15,Sat Dec  2 17:36:55 2023,A template containing a practice and an experimental phase,yes,언어학과심리실험_B조_기말과제용심리실험.osexp,C:\Users\caphi\Downloads,no,mono,no,18,no,black,no,no,768,psycho,12,12,0,C:\Users\caphi\Downloads\quickrun.csv,psycho,Lentiform Loewenfeld,3.3.14,no,꽃,natural,inclusive,0,None,,n,,g,None,n,0.0213999301195144,,2726.412099902518,,76295.86059995927,0.0213999301195144,1014.383799978532,2,psycho,1024,2,48000,-16,experiment,999,odd,해바라기,natural,,139977.6778999949,104757.1177999489,104756.9674999686,,102029.28450005128,3989.4304999616,104756.35849998798,,139247.73319996893,4042.948700021952,141109.5450000139,141109.72179996315,80339.3990000477,139461.2119999947,,140094.31319998112,139235.49949994776,Extended template,0,0.3025998594239354,13,yes,1024
0,0,0.0232071366294154,0.0232071366294154,white,yes,psycho,psycho,psycho,0,uniform,0,undefined,0,n,1,0,16,1,1,0,0,0,0,,16,0,16,16,0,16,1,16,16,Sat Dec  2 17:36:55 2023,A template containing a practice and an experimental phase,yes,언어학과심리실험_B조_기말과제용심리실험.osexp,C:\Users\caphi\Downloads,no,mono,no,18,no,black,no,no,768,psycho,13,13,0,C:\Users\caphi\Downloads\quickrun.csv,psycho,Lentiform Loewenfeld,3.3.14,no,달력,artifactual,same phoneme,0,None,,n,,g,None,n,0.0223000533878803,,2726.412099902518,,76295.86059995927,0.0223000533878803,1030.5415999609977,2,psycho,1024,2,48000,-16,experiment,999,odd,달,natural,,141961.19579998776,104757.1177999489,104756.9674999686,,102029.28450005128,3989.4304999616,104756.35849998798,,141230.44459999073,4042.948700021952,143109.054200002,143109.2423000373,80339.3990000477,141444.3266999442,,142077.63790001627,141205.14039997943,Extended template,0,0.3248999128118157,14,yes,1024
0,0,0.0231866569568713,0.0231866569568713,white,yes,psycho,psycho,psycho,0,uniform,0,undefined,0,n,1,0,17,1,1,0,0,0,0,,17,0,17,17,0,17,1,17,17,Sat Dec  2 17:36:55 2023,A template containing a practice and an experimental phase,yes,언어학과심리실험_B조_기말과제용심리실험.osexp,C:\Users\caphi\Downloads,no,mono,no,18,no,black,no,no,768,psycho,14,14,0,C:\Users\caphi\Downloads\quickrun.csv,psycho,Lentiform Loewenfeld,3.3.14,no,상새고,non-word,non-word,0,None,,n,,g,None,n,0.0228999415412545,,2726.412099902518,,76295.86059995927,0.0228999415412545,1118.488800013438,2,psycho,1024,2,48000,-16,experiment,999,odd,나뭇잎,natural,,143961.29010000732,104757.1177999489,104756.9674999686,,102029.28450005128,3989.4304999616,104756.35849998798,,143229.8551000422,4042.948700021952,145197.2920000553,145197.4831999978,80339.3990000477,143444.2555999849,,144078.05320003536,143210.7172999531,Extended template,0,0.3477998543530702,15,yes,1024
0,0,0.0231187368626706,0.0231187368626706,white,yes,psycho,psycho,psycho,0,uniform,0,undefined,0,a,1,0,18,1,1,0,0,0,0,,18,0,18,18,0,18,1,18,18,Sat Dec  2 17:36:55 2023,A template containing a practice and an experimental phase,yes,언어학과심리실험_B조_기말과제용심리실험.osexp,C:\Users\caphi\Downloads,no,mono,no,18,no,black,no,no,768,psycho,15,15,0,C:\Users\caphi\Downloads\quickrun.csv,psycho,Lentiform Loewenfeld,3.3.14,no,도미노,artifactual,same phoneme,0,None,,n,,g,None,a,0.0220999354496598,,2726.412099902518,,76295.86059995927,0.0220999354496598,915.1098999427631,2,psycho,1024,2,48000,-16,experiment,999,odd,도서,artifactual,,146044.68499997165,104757.1177999489,104756.9674999686,,102029.28450005128,3989.4304999616,104756.35849998798,,145314.28980000783,4042.948700021952,147077.0099000074,147077.20950001385,80339.3990000477,145528.06829998735,,146161.08470002655,145298.66790003143,Extended template,0,0.3698997898027301,16,yes,1024
0,0,0.0230588073677876,0.0230588073677876,white,yes,psycho,psycho,psycho,0,uniform,0,undefined,0,n,1,0,19,1,1,0,0,0,0,,19,0,19,19,0,19,1,19,19,Sat Dec  2 17:36:55 2023,A template containing a practice and an experimental phase,yes,언어학과심리실험_B조_기말과제용심리실험.osexp,C:\Users\caphi\Downloads,no,mono,no,18,no,black,no,no,768,psycho,16,16,0,C:\Users\caphi\Downloads\quickrun.csv,psycho,Lentiform Loewenfeld,3.3.14,no,항구,artifactual,similar-environmental,0,None,,n,,g,None,n,0.0220999354496598,,2726.412099902518,,76295.86059995927,0.0220999354496598,992.2301000915468,2,psycho,1024,2,48000,-16,experiment,999,odd,바다,natural,,147928.0815999955,104757.1177999489,104756.9674999686,,102029.28450005128,3989.4304999616,104756.35849998798,,147197.91929994244,4042.948700021952,149037.6768000424,149037.87660005037,80339.3990000477,147411.86610003933,,148044.63659995236,147178.9442000445,Extended template,0,0.3919997252523899,17,yes,1024
0,0,0.0232777610007259,0.0232777610007259,white,yes,psycho,psycho,psycho,0,uniform,0,undefined,0,a,1,0,20,1,1,0,0,0,0,,20,0,20,20,0,20,1,20,20,Sat Dec  2 17:36:55 2023,A template containing a practice and an experimental phase,yes,언어학과심리실험_B조_기말과제용심리실험.osexp,C:\Users\caphi\Downloads,no,mono,no,18,no,black,no,no,768,psycho,17,17,0,C:\Users\caphi\Downloads\quickrun.csv,psycho,Lentiform Loewenfeld,3.3.14,no,바람,natural,similar-environmental,0,None,,n,,g,None,a,0.0269999727606773,,2726.412099902518,,76295.86059995927,0.0269999727606773,1737.6572999637574,2,psycho,1024,2,48000,-16,experiment,999,odd,창문,artifactual,,149894.42060003057,104757.1177999489,104756.9674999686,,102029.28450005128,3989.4304999616,104756.35849998798,,149165.32220004592,4042.948700021952,151749.1254999768,151749.3470000336,80339.3990000477,149377.69460002892,,150010.64390002284,149140.1831000112,Extended template,0,0.4189996980130672,18,yes,1024
0,0,0.0232052437863067,0.0232052437863067,white,yes,psycho,psycho,psycho,0,uniform,0,undefined,0,n,1,0,21,1,1,0,0,0,0,,21,0,21,21,0,21,1,21,21,Sat Dec  2 17:36:55 2023,A template containing a practice and an experimental phase,yes,언어학과심리실험_B조_기말과제용심리실험.osexp,C:\Users\caphi\Downloads,no,mono,no,18,no,black,no,no,768,psycho,18,18,0,C:\Users\caphi\Downloads\quickrun.csv,psycho,Lentiform Loewenfeld,3.3.14,no,바다,natural,same phoneme,0,None,,n,,g,None,n,0.0218999339267611,,2726.412099902518,,76295.86059995927,0.0218999339267611,1029.1898000286892,2,psycho,1024,2,48000,-16,experiment,999,odd,바퀴벌레,natural,,152594.36660003848,104757.1177999489,104756.9674999686,,102029.28450005128,3989.4304999616,104756.35849998798,,151863.56980004348,4042.948700021952,153740.81850005314,153741.0389999859,80339.3990000477,152077.46840000618,,152710.83829994313,151851.8359999871,Extended template,0,0.4408996319398284,19,yes,1024
0,0,0.0231299840379506,0.0231299840379506,white,yes,psycho,psycho,psycho,0,uniform,0,undefined,0,n,1,0,22,1,1,0,0,0,0,,22,0,22,22,0,22,1,22,22,Sat Dec  2 17:36:55 2023,A template containing a practice and an experimental phase,yes,언어학과심리실험_B조_기말과제용심리실험.osexp,C:\Users\caphi\Downloads,no,mono,no,18,no,black,no,no,768,psycho,19,19,0,C:\Users\caphi\Downloads\quickrun.csv,psycho,Lentiform Loewenfeld,3.3.14,no,대학교,artifactual,no-correlation,0,None,,n,,g,None,n,0.0217000488191843,,2726.412099902518,,76295.86059995927,0.0217000488191843,2148.993100039661,2,psycho,1024,2,48000,-16,experiment,999,odd,계곡,natural,,154594.17539997958,104757.1177999489,104756.9674999686,,102029.28450005128,3989.4304999616,104756.35849998798,,153863.4942000499,4042.948700021952,156861.34239996318,156861.55689996667,80339.3990000477,154077.66139996238,,154711.57429995947,153845.0563000515,Extended template,0,0.4625996807590127,20,yes,1024
0,0,0.0232285542768381,0.0232285542768381,white,yes,psycho,psycho,psycho,0,uniform,0,undefined,0,n,1,0,23,1,1,0,0,0,0,,23,0,23,23,0,23,1,23,23,Sat Dec  2 17:36:55 2023,A template containing a practice and an experimental phase,yes,언어학과심리실험_B조_기말과제용심리실험.osexp,C:\Users\caphi\Downloads,no,mono,no,18,no,black,no,no,768,psycho,20,20,0,C:\Users\caphi\Downloads\quickrun.csv,psycho,Lentiform Loewenfeld,3.3.14,no,악어,natural,similar-environmental,0,None,,n,,g,None,n,0.0251999590545892,,2726.412099902518,,76295.86059995927,0.0251999590545892,1536.8273999774829,2,psycho,1024,2,48000,-16,experiment,999,odd,늪,natural,,157711.23829996213,104757.1177999489,104756.9674999686,,102029.28450005128,3989.4304999616,104756.35849998798,,156980.49660003744,4042.948700021952,159365.2299999958,159365.4665000504,80339.3990000477,157194.44049999584,,157827.65079999808,156963.08330004103,Extended template,0,0.4877996398136019,21,yes,1024
0,0,0.0233908914114263,0.0233908914114263,white,yes,psycho,psycho,psycho,0,uniform,0,undefined,0,a,1,0,24,1,1,0,0,0,0,,24,0,24,24,0,24,1,24,24,Sat Dec  2 17:36:55 2023,A template containing a practice and an experimental phase,yes,언어학과심리실험_B조_기말과제용심리실험.osexp,C:\Users\caphi\Downloads,no,mono,no,18,no,black,no,no,768,psycho,21,21,0,C:\Users\caphi\Downloads\quickrun.csv,psycho,Lentiform Loewenfeld,3.3.14,no,건물,artifactual,inclusive,0,None,,n,,g,None,a,0.0267999712377786,,2726.412099902518,,76295.86059995927,0.0267999712377786,955.741100013256,2,psycho,1024,2,48000,-16,experiment,999,odd,병원,artifactual,,160228.2692999579,104757.1177999489,104756.9674999686,,102029.28450005128,3989.4304999616,104756.35849998798,,159497.14710004628,4042.948700021952,161301.3719000155,161301.65230005514,80339.3990000477,159711.3556000404,,160344.77039997,159473.363099969,Extended template,0,0.5145996110513806,22,yes,1024
0,0,0.0233304200936918,0.0233304200936918,white,yes,psycho,psycho,psycho,0,uniform,0,undefined,0,a,1,0,25,1,1,0,0,0,0,,25,0,25,25,0,25,1,25,25,Sat Dec  2 17:36:55 2023,A template containing a practice and an experimental phase,yes,언어학과심리실험_B조_기말과제용심리실험.osexp,C:\Users\caphi\Downloads,no,mono,no,18,no,black,no,no,768,psycho,22,22,0,C:\Users\caphi\Downloads\quickrun.csv,psycho,Lentiform Loewenfeld,3.3.14,no,국가,artifactual,inclusive,0,None,,n,,g,None,a,0.0220000511035323,,2726.412099902518,,76295.86059995927,0.0220000511035323,1127.2023000055924,2,psycho,1024,2,48000,-16,experiment,999,odd,대한민국,artifactual,,162145.03759995569,104757.1177999489,104756.9674999686,,102029.28450005128,3989.4304999616,104756.35849998798,,161414.11619994324,4042.948700021952,163389.53309995122,163389.7615999449,80339.3990000477,161628.19770001806,,162261.48089999333,161400.72759997565,Extended template,0,0.536599662154913,23,yes,1024
0,0,0.0232374877668917,0.0232374877668917,white,yes,psycho,psycho,psycho,0,uniform,0,undefined,0,a,1,0,26,1,1,0,0,0,0,,26,0,26,26,0,26,1,26,26,Sat Dec  2 17:36:55 2023,A template containing a practice and an experimental phase,yes,언어학과심리실험_B조_기말과제용심리실험.osexp,C:\Users\caphi\Downloads,no,mono,no,18,no,black,no,no,768,psycho,23,23,0,C:\Users\caphi\Downloads\quickrun.csv,psycho,Lentiform Loewenfeld,3.3.14,no,종이,artifactual,similar-environmental,0,None,,n,,g,None,a,0.0211000442504882,,2726.412099902518,,76295.86059995927,0.0211000442504882,1298.2531000161543,2,psycho,1024,2,48000,-16,experiment,999,odd,프린터,artifactual,,164244.87609998323,104757.1177999489,104756.9674999686,,102029.28450005128,3989.4304999616,104756.35849998798,,163515.31519996934,4042.948700021952,165661.5509999683,165661.78249998484,80339.3990000477,163728.22419996373,,164362.5197999645,163491.1397000542,Extended template,0,0.5576997064054012,24,yes,1024
0,0,0.0231759902089834,0.0231759902089834,white,yes,psycho,psycho,psycho,0,uniform,0,undefined,0,a,1,0,27,1,1,0,0,0,0,,27,0,27,27,0,27,1,27,27,Sat Dec  2 17:36:55 2023,A template containing a practice and an experimental phase,yes,언어학과심리실험_B조_기말과제용심리실험.osexp,C:\Users\caphi\Downloads,no,mono,no,18,no,black,no,no,768,psycho,24,24,0,C:\Users\caphi\Downloads\quickrun.csv,psycho,Lentiform Loewenfeld,3.3.14,no,해변,natural,similar-environmental,0,None,,n,,g,None,a,0.0217000488191843,,2726.412099902518,,76295.86059995927,0.0217000488191843,1296.9602000666782,2,psycho,1024,2,48000,-16,experiment,999,odd,파라솔,artifactual,,166511.92690001335,104757.1177999489,104756.9674999686,,102029.28450005128,3989.4304999616,104756.35849998798,,165781.11229999922,4042.948700021952,167926.0471999878,167926.28769995645,80339.3990000477,165994.48350002058,,166628.2384999795,165767.10900000762,Extended template,0,0.5793997552245855,25,yes,1024
0,0,0.0231538388806466,0.0231538388806466,white,yes,psycho,psycho,psycho,0,uniform,0,undefined,0,n,1,0,28,1,1,0,0,0,0,,28,0,28,28,0,28,1,28,28,Sat Dec  2 17:36:55 2023,A template containing a practice and an experimental phase,yes,언어학과심리실험_B조_기말과제용심리실험.osexp,C:\Users\caphi\Downloads,no,mono,no,18,no,black,no,no,768,psycho,25,25,0,C:\Users\caphi\Downloads\quickrun.csv,psycho,Lentiform Loewenfeld,3.3.14,no,불,natural,no-correlation,0,None,,n,,g,None,n,0.0226000556722283,,2726.412099902518,,76295.86059995927,0.0226000556722283,861.8922999594361,2,psycho,1024,2,48000,-16,experiment,999,odd,바위,natural,,168778.54359999765,104757.1177999489,104756.9674999686,,102029.28450005128,3989.4304999616,104756.35849998798,,168048.75449999236,4042.948700021952,169757.99079996068,169758.23709997348,80339.3990000477,168262.15139997657,,168895.1261000475,168026.92710002884,Extended template,0,0.6019998108968139,26,yes,1024
0,0,0.023151842739295,0.023151842739295,white,yes,psycho,psycho,psycho,0,uniform,0,undefined,0,a,1,0,29,1,1,0,0,0,0,,29,0,29,29,0,29,1,29,29,Sat Dec  2 17:36:55 2023,A template containing a practice and an experimental phase,yes,언어학과심리실험_B조_기말과제용심리실험.osexp,C:\Users\caphi\Downloads,no,mono,no,18,no,black,no,no,768,psycho,26,26,0,C:\Users\caphi\Downloads\quickrun.csv,psycho,Lentiform Loewenfeld,3.3.14,no,계곡,natural,no-correlation,0,None,,n,,g,None,a,0.0230999430641531,,2726.412099902518,,76295.86059995927,0.0230999430641531,748.6932000610977,2,psycho,1024,2,48000,-16,experiment,999,odd,화장실,artifactual,,170612.0178999845,104757.1177999489,104756.9674999686,,102029.28450005128,3989.4304999616,104756.35849998798,,169886.37319998816,4042.948700021952,171477.71600005217,171477.9700000072,80339.3990000477,170094.7171000298,,170728.19469997194,169860.26910005603,Extended template,0,0.6250997539609671,27,yes,1024
0,0,0.0231464218813925,0.0231464218813925,white,yes,psycho,psycho,psycho,0,uniform,0,undefined,0,a,0,0,30,1,1,0,0,0,0,,30,0,30,30,0,30,1,30,30,Sat Dec  2 17:36:55 2023,A template containing a practice and an experimental phase,yes,언어학과심리실험_B조_기말과제용심리실험.osexp,C:\Users\caphi\Downloads,no,mono,no,18,no,black,no,no,768,psycho,27,27,0,C:\Users\caphi\Downloads\quickrun.csv,psycho,Lentiform Loewenfeld,3.3.14,no,학교,artifactual,inclusive,0,None,,n,,g,None,x,0.0230000587180256,,2726.412099902518,,76295.86059995927,0.0230000587180256,2287.988700089045,2,psycho,1024,2,48000,-16,experiment,999,odd,학생,artifactual,,172329.24929994624,104757.1177999489,104756.9674999686,,102029.28450005128,3989.4304999616,104756.35849998798,,171598.89070002828,4042.948700021952,174734.3071999494,174734.62280002423,80339.3990000477,171811.86929997057,,172445.32319996506,171580.3640000522,Extended template,0,0.6480998126789927,28,yes,1024
0,0,0.0231172367609266,0.0231172367609266,white,yes,psycho,psycho,psycho,0,uniform,0,undefined,0,a,1,0,31,1,1,0,0,0,0,,31,0,31,31,0,31,1,31,31,Sat Dec  2 17:36:55 2023,A template containing a practice and an experimental phase,yes,언어학과심리실험_B조_기말과제용심리실험.osexp,C:\Users\caphi\Downloads,no,mono,no,18,no,black,no,no,768,psycho,28,28,0,C:\Users\caphi\Downloads\quickrun.csv,psycho,Lentiform Loewenfeld,3.3.14,no,산,natural,similar-environmental,0,None,,n,,g,None,a,0.0223000533878803,,2726.412099902518,,76295.86059995927,0.0223000533878803,2293.681300012395,2,psycho,1024,2,48000,-16,experiment,999,odd,오두막,artifactual,,175578.6571999779,104757.1177999489,104756.9674999686,,102029.28450005128,3989.4304999616,104756.35849998798,,174848.29869994428,4042.948700021952,177989.7873000009,177990.05090002902,80339.3990000477,175062.53580003977,,175695.30709995888,174836.0264999792,Extended template,0,0.6703998660668731,29,yes,1024
0,0,0.0232333317399024,0.0232333317399024,white,yes,psycho,psycho,psycho,0,uniform,0,undefined,0,n,0,0,32,1,1,0,0,0,0,,32,0,32,32,0,32,1,32,32,Sat Dec  2 17:36:55 2023,A template containing a practice and an experimental phase,yes,언어학과심리실험_B조_기말과제용심리실험.osexp,C:\Users\caphi\Downloads,no,mono,no,18,no,black,no,no,768,psycho,29,29,0,C:\Users\caphi\Downloads\quickrun.csv,psycho,Lentiform Loewenfeld,3.3.14,no,달,artifactual,same phoneme,0,None,,n,,g,None,a,0.0266000861302018,,2726.412099902518,,76295.86059995927,0.0266000861302018,779.2513999156654,2,psycho,1024,2,48000,-16,experiment,999,odd,달력,natural,,178845.89740005322,104757.1177999489,104756.9674999686,,102029.28450005128,3989.4304999616,104756.35849998798,,178115.66649994347,4042.948700021952,179742.1809999505,179742.50980000943,80339.3990000477,178328.78999994136,,178961.93790005054,178092.47080003843,Extended template,0,0.6969999521970749,30,yes,1024
0,0,0.0231709676764665,0.0231709676764665,white,yes,psycho,psycho,psycho,0,uniform,0,undefined,0,a,1,0,33,1,1,0,0,0,0,,33,0,33,33,0,33,1,33,33,Sat Dec  2 17:36:55 2023,A template containing a practice and an experimental phase,yes,언어학과심리실험_B조_기말과제용심리실험.osexp,C:\Users\caphi\Downloads,no,mono,no,18,no,black,no,no,768,psycho,30,30,0,C:\Users\caphi\Downloads\quickrun.csv,psycho,Lentiform Loewenfeld,3.3.14,no,경주,artifactual,no-correlation,0,None,,n,,g,None,a,0.0213000457733869,,2726.412099902518,,76295.86059995927,0.0213000457733869,749.1935999132693,2,psycho,1024,2,48000,-16,experiment,999,odd,버스,artifactual,,180596.28489997704,104757.1177999489,104756.9674999686,,102029.28450005128,3989.4304999616,104756.35849998798,,179864.83400000725,4042.948700021952,181462.3295000056,181462.66259998083,80339.3990000477,180078.2907999819,,180712.2899000533,179844.6924999589,Extended template,0,0.7182999979704618,31,yes,1024
0,0,0.0232624988711904,0.0232624988711904,white,yes,psycho,psycho,psycho,0,uniform,0,undefined,0,a,1,0,34,1,1,0,0,0,0,,34,0,34,34,0,34,1,34,34,Sat Dec  2 17:36:55 2023,A template containing a practice and an experimental phase,yes,언어학과심리실험_B조_기말과제용심리실험.osexp,C:\Users\caphi\Downloads,no,mono,no,18,no,black,no,no,768,psycho,31,31,0,C:\Users\caphi\Downloads\quickrun.csv,psycho,Lentiform Loewenfeld,3.3.14,no,안음풍,non-word,non-word,0,None,,n,,g,None,a,0.0260999659076333,,2726.412099902518,,76295.86059995927,0.0260999659076333,697.1383999334648,2,psycho,1024,2,48000,-16,experiment,999,odd,의자,artifactual,,182312.7650000388,104757.1177999489,104756.9674999686,,102029.28450005128,3989.4304999616,104756.35849998798,,181581.76560001448,4042.948700021952,183126.8060000148,183127.16160004493,80339.3990000477,181795.4203999834,,182428.57430002184,181564.76450001355,Extended template,0,0.7443999638780951,32,yes,1024
0,0,0.0234848473954832,0.0234848473954832,white,yes,psycho,psycho,psycho,0,uniform,0,undefined,0,n,1,0,35,1,1,0,0,0,0,,35,0,35,35,0,35,1,35,35,Sat Dec  2 17:36:55 2023,A template containing a practice and an experimental phase,yes,언어학과심리실험_B조_기말과제용심리실험.osexp,C:\Users\caphi\Downloads,no,mono,no,18,no,black,no,no,768,psycho,32,32,0,C:\Users\caphi\Downloads\quickrun.csv,psycho,Lentiform Loewenfeld,3.3.14,no,경주,artifactual,no-correlation,0,None,,n,,g,None,n,0.0306000001728534,,2726.412099902518,,76295.86059995927,0.0306000001728534,902.2635000292212,2,psycho,1024,2,48000,-16,experiment,999,odd,소나무,natural,,183978.9478000021,104757.1177999489,104756.9674999686,,102029.28450005128,3989.4304999616,104756.35849998798,,183249.23720001243,4042.948700021952,184999.0282000508,184999.3202999467,80339.3990000477,183462.62090001252,,184095.7236000104,183228.84180000983,Extended template,0,0.7749999640509486,33,yes,1024
0,0,0.0234294121208436,0.0234294121208436,white,yes,psycho,psycho,psycho,0,uniform,0,undefined,0,x,0,0,36,1,1,0,0,0,0,,36,0,36,36,0,36,1,36,36,Sat Dec  2 17:36:55 2023,A template containing a practice and an experimental phase,yes,언어학과심리실험_B조_기말과제용심리실험.osexp,C:\Users\caphi\Downloads,no,mono,no,18,no,black,no,no,768,psycho,33,33,0,C:\Users\caphi\Downloads\quickrun.csv,psycho,Lentiform Loewenfeld,3.3.14,no,시계,artifactual,non-word,0,None,,n,,g,None,a,0.0216000480577349,,2726.412099902518,,76295.86059995927,0.0216000480577349,1507.2364000370726,2,psycho,1024,2,48000,-16,experiment,999,odd,책솜,non-word,,185862.59270005397,104757.1177999489,104756.9674999686,,102029.28450005128,3989.4304999616,104756.35849998798,,185133.32000002265,4042.948700021952,187486.65269999765,187486.93809995893,80339.3990000477,185346.3441999629,,185978.5145999631,185111.42169998493,Extended template,0,0.7966000121086836,34,yes,1024
0,0,0.0233742874115705,0.0233742874115705,white,yes,psycho,psycho,psycho,0,uniform,0,undefined,0,n,1,0,37,1,1,0,0,0,0,,37,0,37,37,0,37,1,37,37,Sat Dec  2 17:36:55 2023,A template containing a practice and an experimental phase,yes,언어학과심리실험_B조_기말과제용심리실험.osexp,C:\Users\caphi\Downloads,no,mono,no,18,no,black,no,no,768,psycho,34,34,0,C:\Users\caphi\Downloads\quickrun.csv,psycho,Lentiform Loewenfeld,3.3.14,no,박쥐,natural,similar-environmental,0,None,,n,,g,None,n,0.0215000472962856,,2726.412099902518,,76295.86059995927,0.0215000472962856,1319.969299947843,2,psycho,1024,2,48000,-16,experiment,999,odd,동굴,natural,,188329.5422999654,104757.1177999489,104756.9674999686,,102029.28450005128,3989.4304999616,104756.35849998798,,187598.4014000278,4042.948700021952,189766.174599994,189766.46469999105,80339.3990000477,187812.0246999897,,188445.34760003444,187589.1157999868,Extended template,0,0.8181000594049692,35,yes,1024
0,0,0.0233555587732957,0.0233555587732957,white,yes,psycho,psycho,psycho,0,uniform,0,undefined,0,n,1,0,38,1,1,0,0,0,0,,38,0,38,38,0,38,1,38,38,Sat Dec  2 17:36:55 2023,A template containing a practice and an experimental phase,yes,언어학과심리실험_B조_기말과제용심리실험.osexp,C:\Users\caphi\Downloads,no,mono,no,18,no,black,no,no,768,psycho,35,35,0,C:\Users\caphi\Downloads\quickrun.csv,psycho,Lentiform Loewenfeld,3.3.14,no,산,natural,similar-environmental,0,None,,n,,g,None,n,0.0227000564336776,,2726.412099902518,,76295.86059995927,0.0227000564336776,2573.1837999774143,2,psycho,1024,2,48000,-16,experiment,999,odd,계곡,natural,,190612.74959996808,104757.1177999489,104756.9674999686,,102029.28450005128,3989.4304999616,104756.35849998798,,189882.46200000867,4042.948700021952,193303.03129996173,193303.3304000273,80339.3990000477,190095.34200001508,,190728.89280004887,189867.78039997444,Extended template,0,0.8408001158386469,36,yes,1024
0,0,0.0233432447940513,0.0233432447940513,white,yes,psycho,psycho,psycho,0,uniform,0,undefined,0,n,1,0,39,1,1,0,0,0,0,,39,0,39,39,0,39,1,39,39,Sat Dec  2 17:36:55 2023,A template containing a practice and an experimental phase,yes,언어학과심리실험_B조_기말과제용심리실험.osexp,C:\Users\caphi\Downloads,no,mono,no,18,no,black,no,no,768,psycho,36,36,0,C:\Users\caphi\Downloads\quickrun.csv,psycho,Lentiform Loewenfeld,3.3.14,no,태양,natural,same phoneme,0,None,,n,,g,None,n,0.0228999415412545,,2726.412099902518,,76295.86059995927,0.0228999415412545,1382.8713999828324,2,psycho,1024,2,48000,-16,experiment,999,odd,태풍,natural,,194145.60559997332,104757.1177999489,104756.9674999686,,102029.28450005128,3989.4304999616,104756.35849998798,,193415.31620000023,4042.948700021952,195646.6493000044,195646.9533999916,80339.3990000477,193629.4496000046,,194262.75720004924,193404.12059996743,Extended template,0,0.8637000573799014,37,yes,1024
0,0,0.0233421053149198,0.0233421053149198,white,yes,psycho,psycho,psycho,0,uniform,0,undefined,0,n,1,0,40,1,1,0,0,0,0,,40,0,40,40,0,40,1,40,40,Sat Dec  2 17:36:55 2023,A template containing a practice and an experimental phase,yes,언어학과심리실험_B조_기말과제용심리실험.osexp,C:\Users\caphi\Downloads,no,mono,no,18,no,black,no,no,768,psycho,37,37,0,C:\Users\caphi\Downloads\quickrun.csv,psycho,Lentiform Loewenfeld,3.3.14,no,해마,natural,same phoneme,0,None,,n,,g,None,n,0.0232999445870518,,2726.412099902518,,76295.86059995927,0.0232999445870518,1762.205799925141,2,psycho,1024,2,48000,-16,experiment,999,odd,해질녘,natural,,196496.37229996733,104757.1177999489,104756.9674999686,,102029.28450005128,3989.4304999616,104756.35849998798,,195765.5010999879,4042.948700021952,198375.32220000867,198375.643700012,80339.3990000477,195979.05830002856,,196612.14630003087,195748.591599986,Extended template,0,0.8870000019669533,38,yes,1024
0,0,0.0234179479332688,0.0234179479332688,white,yes,psycho,psycho,psycho,0,uniform,0,undefined,0,a,1,0,41,1,1,0,0,0,0,,41,0,41,41,0,41,1,41,41,Sat Dec  2 17:36:55 2023,A template containing a practice and an experimental phase,yes,언어학과심리실험_B조_기말과제용심리실험.osexp,C:\Users\caphi\Downloads,no,mono,no,18,no,black,no,no,768,psycho,38,38,0,C:\Users\caphi\Downloads\quickrun.csv,psycho,Lentiform Loewenfeld,3.3.14,no,마우스,artifactual,no-correlation,0,None,,n,,g,None,a,0.0262999674305319,,2726.412099902518,,76295.86059995927,0.0262999674305319,756.2858000164852,2,psycho,1024,2,48000,-16,experiment,999,odd,모자,artifactual,,199229.9939000513,104757.1177999489,104756.9674999686,,102029.28450005128,3989.4304999616,104756.35849998798,,198499.1646000417,4042.948700021952,200102.87429997695,200103.2247999683,80339.3990000477,198712.93919999152,,199345.59709997848,198476.88920004293,Extended template,0,0.9132999693974851,39,yes,1024
0,0,0.0233724975259974,0.0233724975259974,white,yes,psycho,psycho,psycho,0,uniform,0,undefined,0,a,1,0,42,1,1,0,0,0,0,,42,0,42,42,0,42,1,42,42,Sat Dec  2 17:36:55 2023,A template containing a practice and an experimental phase,yes,언어학과심리실험_B조_기말과제용심리실험.osexp,C:\Users\caphi\Downloads,no,mono,no,18,no,black,no,no,768,psycho,39,39,0,C:\Users\caphi\Downloads\quickrun.csv,psycho,Lentiform Loewenfeld,3.3.14,no,과일,natural,no-correlation,0,None,,n,,g,None,a,0.0215999316424131,,2726.412099902518,,76295.86059995927,0.0215999316424131,1630.769099923782,2,psycho,1024,2,48000,-16,experiment,999,odd,가방,artifactual,,200945.9250000073,104757.1177999489,104756.9674999686,,102029.28450005128,3989.4304999616,104756.35849998798,,200220.92760005037,4042.948700021952,202694.7196000256,202695.0459999498,80339.3990000477,200429.78620005303,,201062.97800003085,200198.83060001305,Extended template,0,0.9348999010398984,40,yes,1024
0,0,0.0233634108132342,0.0233634108132342,white,yes,psycho,psycho,psycho,0,uniform,0,undefined,0,n,1,0,43,1,1,0,0,0,0,,43,0,43,43,0,43,1,43,43,Sat Dec  2 17:36:55 2023,A template containing a practice and an experimental phase,yes,언어학과심리실험_B조_기말과제용심리실험.osexp,C:\Users\caphi\Downloads,no,mono,no,18,no,black,no,no,768,psycho,40,40,0,C:\Users\caphi\Downloads\quickrun.csv,psycho,Lentiform Loewenfeld,3.3.14,no,물고기,natural,no-correlation,0,None,,n,,g,None,n,0.0229999423027038,,2726.412099902518,,76295.86059995927,0.0229999423027038,1943.3762000408024,2,psycho,1024,2,48000,-16,experiment,999,odd,밤하늘,natural,,203545.90110003483,104757.1177999489,104756.9674999686,,102029.28450005128,3989.4304999616,104756.35849998798,,202816.56549999025,4042.948700021952,205607.31380002107,205607.64379997272,80339.3990000477,203029.658799991,,203662.9136999836,202796.2024000008,Extended template,0,0.9578998433426024,41,yes,1024
0,0,0.0234166648061502,0.0234166648061502,white,yes,psycho,psycho,psycho,0,uniform,0,undefined,0,x,1,0,44,1,1,0,0,0,0,,44,0,44,44,0,44,1,44,44,Sat Dec  2 17:36:55 2023,A template containing a practice and an experimental phase,yes,언어학과심리실험_B조_기말과제용심리실험.osexp,C:\Users\caphi\Downloads,no,mono,no,18,no,black,no,no,768,psycho,41,41,0,C:\Users\caphi\Downloads\quickrun.csv,psycho,Lentiform Loewenfeld,3.3.14,no,폭풍,natural,non-word,0,None,,n,,g,None,x,0.0256000785157084,,2726.412099902518,,76295.86059995927,0.0256000785157084,2434.7471999935806,2,psycho,1024,2,48000,-16,experiment,999,odd,섬강,non-word,,206463.72690005228,104757.1177999489,104756.9674999686,,102029.28450005128,3989.4304999616,104756.35849998798,,205733.3412000444,4042.948700021952,209015.0389999617,209015.45089995489,80339.3990000477,205946.3491999777,,206579.19129997023,205708.6972000543,Extended template,0,0.9834999218583108,42,yes,1024
0,0,0.0234999975492787,0.0234999975492787,white,yes,psycho,psycho,psycho,0,uniform,0,undefined,0,a,1,0,45,1,1,0,0,0,0,,45,0,45,45,0,45,1,45,45,Sat Dec  2 17:36:55 2023,A template containing a practice and an experimental phase,yes,언어학과심리실험_B조_기말과제용심리실험.osexp,C:\Users\caphi\Downloads,no,mono,no,18,no,black,no,no,768,psycho,42,42,0,C:\Users\caphi\Downloads\quickrun.csv,psycho,Lentiform Loewenfeld,3.3.14,no,바다,natural,same phoneme,0,None,,n,,g,None,a,0.0269999727606773,,2726.412099902518,,76295.86059995927,0.0269999727606773,1747.0327999908477,2,psycho,1024,2,48000,-16,experiment,999,odd,바구니,artifactual,,209863.38510003407,104757.1177999489,104756.9674999686,,102029.28450005128,3989.4304999616,104756.35849998798,,209132.2546999436,4042.948700021952,211726.9801000366,211727.3911000229,80339.3990000477,209346.2373999646,,209978.8496999536,209116.6040999815,Extended template,0,1.010499894618988,43,yes,1024
0,0,0.0234749988356435,0.0234749988356435,white,yes,psycho,psycho,psycho,0,uniform,0,undefined,0,n,1,0,46,1,1,0,0,0,0,,46,0,46,46,0,46,1,46,46,Sat Dec  2 17:36:55 2023,A template containing a practice and an experimental phase,yes,언어학과심리실험_B조_기말과제용심리실험.osexp,C:\Users\caphi\Downloads,no,mono,no,18,no,black,no,no,768,psycho,43,43,0,C:\Users\caphi\Downloads\quickrun.csv,psycho,Lentiform Loewenfeld,3.3.14,no,불,natural,no-correlation,0,None,,n,,g,None,n,0.0224000541493296,,2726.412099902518,,76295.86059995927,0.0224000541493296,1077.8977000154557,2,psycho,1024,2,48000,-16,experiment,999,odd,물고기,natural,,212579.6441000421,104757.1177999489,104756.9674999686,,102029.28450005128,3989.4304999616,104756.35849998798,,211849.24270003103,4042.948700021952,213775.1794999931,213775.52729996387,80339.3990000477,212063.3705999935,,212696.34110003244,211828.07389996012,Extended template,0,1.0328999487683177,44,yes,1024
0,0,0.0234511085889405,0.0234511085889405,white,yes,psycho,psycho,psycho,0,uniform,0,undefined,0,n,1,0,47,1,1,0,0,0,0,,47,0,47,47,0,47,1,47,47,Sat Dec  2 17:36:55 2023,A template containing a practice and an experimental phase,yes,언어학과심리실험_B조_기말과제용심리실험.osexp,C:\Users\caphi\Downloads,no,mono,no,18,no,black,no,no,768,psycho,44,44,0,C:\Users\caphi\Downloads\quickrun.csv,psycho,Lentiform Loewenfeld,3.3.14,no,다리,artifactual,similar-environmental,0,None,,n,,g,None,n,0.0223999377340078,,2726.412099902518,,76295.86059995927,0.0223999377340078,861.0101999947801,2,psycho,1024,2,48000,-16,experiment,999,odd,강,natural,,214630.52000000607,104757.1177999489,104756.9674999686,,102029.28450005128,3989.4304999616,104756.35849998798,,213900.19539999776,4042.948700021952,215607.52580000556,215607.86590003408,80339.3990000477,214113.3743999526,,214745.49010000192,213875.69709995296,Extended template,0,1.0552998865023255,45,yes,1024
0,0,0.0234239091894224,0.0234239091894224,white,yes,psycho,psycho,psycho,0,uniform,0,undefined,0,n,1,0,48,1,1,0,0,0,0,,48,0,48,48,0,48,1,48,48,Sat Dec  2 17:36:55 2023,A template containing a practice and an experimental phase,yes,언어학과심리실험_B조_기말과제용심리실험.osexp,C:\Users\caphi\Downloads,no,mono,no,18,no,black,no,no,768,psycho,45,45,0,C:\Users\caphi\Downloads\quickrun.csv,psycho,Lentiform Loewenfeld,3.3.14,no,스노우보드,artifactual,no-correlation,0,None,,n,,g,None,n,0.0221999362111091,,2726.412099902518,,76295.86059995927,0.0221999362111091,731.8913999479264,2,psycho,1024,2,48000,-16,experiment,999,odd,꽃,natural,,216463.12149998263,104757.1177999489,104756.9674999686,,102029.28450005128,3989.4304999616,104756.35849998798,,215732.6551999431,4042.948700021952,217311.848100042,217312.203999958,80339.3990000477,215946.85619999652,,216578.9412000449,215708.52029998787,Extended template,0,1.0774998227134347,46,yes,1024
0,0,0.0234106357427353,0.0234106357427353,white,yes,psycho,psycho,psycho,0,uniform,0,undefined,0,n,0,0,49,1,1,0,0,0,0,,49,0,49,49,0,49,1,49,49,Sat Dec  2 17:36:55 2023,A template containing a practice and an experimental phase,yes,언어학과심리실험_B조_기말과제용심리실험.osexp,C:\Users\caphi\Downloads,no,mono,no,18,no,black,no,no,768,psycho,46,46,0,C:\Users\caphi\Downloads\quickrun.csv,psycho,Lentiform Loewenfeld,3.3.14,no,호수,natural,same phoneme,0,None,,n,,g,None,x,0.022800057195127,,2726.412099902518,,76295.86059995927,0.022800057195127,3630.482300068252,2,psycho,1024,2,48000,-16,experiment,999,odd,호랑이,natural,,218180.44779996853,104757.1177999489,104756.9674999686,,102029.28450005128,3989.4304999616,104756.35849998798,,217450.1123999944,4042.948700021952,221927.80179996043,221928.16510004923,80339.3990000477,217663.0489999661,,218296.24459997285,217424.51329994947,Extended template,0,1.1002998799085617,47,yes,1024
0,0,0.0233708318167676,0.0233708318167676,white,yes,psycho,psycho,psycho,0,uniform,0,undefined,0,n,1,0,50,1,1,0,0,0,0,,50,0,50,50,0,50,1,50,50,Sat Dec  2 17:36:55 2023,A template containing a practice and an experimental phase,yes,언어학과심리실험_B조_기말과제용심리실험.osexp,C:\Users\caphi\Downloads,no,mono,no,18,no,black,no,no,768,psycho,47,47,0,C:\Users\caphi\Downloads\quickrun.csv,psycho,Lentiform Loewenfeld,3.3.14,no,스노우보드,artifactual,no-correlation,0,None,,n,,g,None,n,0.0215000472962856,,2726.412099902518,,76295.86059995927,0.0215000472962856,1493.951699929312,2,psycho,1024,2,48000,-16,experiment,999,odd,소나무,natural,,222780.19770001995,104757.1177999489,104756.9674999686,,102029.28450005128,3989.4304999616,104756.35849998798,,222049.28829998244,4042.948700021952,224391.1612000084,224391.51069999207,80339.3990000477,222263.15280003476,,222896.3156000245,222029.83559994027,Extended template,0,1.1217999272048471,48,yes,1024
0,0,0.0233530584836796,0.0233530584836796,white,yes,psycho,psycho,psycho,0,uniform,0,undefined,0,a,0,0,51,1,1,0,0,0,0,,51,0,51,51,0,51,1,51,51,Sat Dec  2 17:36:55 2023,A template containing a practice and an experimental phase,yes,언어학과심리실험_B조_기말과제용심리실험.osexp,C:\Users\caphi\Downloads,no,mono,no,18,no,black,no,no,768,psycho,48,48,0,C:\Users\caphi\Downloads\quickrun.csv,psycho,Lentiform Loewenfeld,3.3.14,no,바다,natural,same phoneme,0,None,,n,,g,None,x,0.0224999384954571,,2726.412099902518,,76295.86059995927,0.0224999384954571,2411.862300010398,2,psycho,1024,2,48000,-16,experiment,999,odd,바닥,artifactual,,225246.9776000362,104757.1177999489,104756.9674999686,,102029.28450005128,3989.4304999616,104756.35849998798,,224515.76820004263,4042.948700021952,227776.19130001403,227776.5756000299,80339.3990000477,224729.54650002063,,225363.20849996991,224502.4544999469,Extended template,0,1.1442998657003045,49,yes,1024
0,0,0.0236139982007443,0.0236139982007443,white,yes,psycho,psycho,psycho,0,uniform,0,undefined,0,a,1,0,52,1,1,0,0,0,0,,52,0,52,52,0,52,1,52,52,Sat Dec  2 17:36:55 2023,A template containing a practice and an experimental phase,yes,언어학과심리실험_B조_기말과제용심리실험.osexp,C:\Users\caphi\Downloads,no,mono,no,18,no,black,no,no,768,psycho,49,49,0,C:\Users\caphi\Downloads\quickrun.csv,psycho,Lentiform Loewenfeld,3.3.14,no,시,artifactual,similar-environmental,0,None,,n,,g,None,a,0.036400044336915,,2726.412099902518,,76295.86059995927,0.036400044336915,1162.8931999439374,2,psycho,1024,2,48000,-16,experiment,999,odd,소설,artifactual,,228630.79790002664,104757.1177999489,104756.9674999686,,102029.28450005128,3989.4304999616,104756.35849998798,,227900.2901000204,4042.948700021952,229911.73219995108,229912.1634999756,80339.3990000477,228113.39710000905,,228747.55800003183,227877.74889997672,Extended template,0,1.1806999100372195,50,yes,1024
0,0,0.0235666657852775,0.0235666657852775,white,yes,psycho,psycho,psycho,0,uniform,0,undefined,0,n,1,0,53,1,1,0,0,0,0,,53,0,53,53,0,53,1,53,53,Sat Dec  2 17:36:55 2023,A template containing a practice and an experimental phase,yes,언어학과심리실험_B조_기말과제용심리실험.osexp,C:\Users\caphi\Downloads,no,mono,no,18,no,black,no,no,768,psycho,50,50,0,C:\Users\caphi\Downloads\quickrun.csv,psycho,Lentiform Loewenfeld,3.3.14,no,새,natural,inclusive,0,None,,n,,g,None,n,0.0212000450119376,,2726.412099902518,,76295.86059995927,0.0212000450119376,1470.2935999957845,2,psycho,1024,2,48000,-16,experiment,999,odd,까치,natural,,230763.7276999885,104757.1177999489,104756.9674999686,,102029.28450005128,3989.4304999616,104756.35849998798,,230033.8783999905,4042.948700021952,232352.03249996997,232352.40770003293,80339.3990000477,230246.27520004287,,230880.77699998397,230013.03709996864,Extended template,0,1.2018999550491571,51,yes,1024
0,0,0.0235153845726297,0.0235153845726297,white,yes,psycho,psycho,psycho,0,uniform,0,undefined,0,n,1,0,54,1,1,0,0,0,0,,54,0,54,54,0,54,1,54,54,Sat Dec  2 17:36:55 2023,A template containing a practice and an experimental phase,yes,언어학과심리실험_B조_기말과제용심리실험.osexp,C:\Users\caphi\Downloads,no,mono,no,18,no,black,no,no,768,psycho,51,51,0,C:\Users\caphi\Downloads\quickrun.csv,psycho,Lentiform Loewenfeld,3.3.14,no,우산,artifactual,similar-environmental,0,None,,n,,g,None,n,0.0209000427275896,,2726.412099902518,,76295.86059995927,0.0209000427275896,1020.9885999793188,2,psycho,1024,2,48000,-16,experiment,999,odd,비,natural,,233197.45360000525,104757.1177999489,104756.9674999686,,102029.28450005128,3989.4304999616,104756.35849998798,,232466.65419999044,4042.948700021952,234335.5257000076,234335.8966000378,80339.3990000477,232680.60740001965,,233313.63750004675,232452.35429995228,Extended template,0,1.2227999977767467,52,yes,1024
0,0,0.0235056614432975,0.0235056614432975,white,yes,psycho,psycho,psycho,0,uniform,0,undefined,0,a,1,0,55,1,1,0,0,0,0,,55,0,55,55,0,55,1,55,55,Sat Dec  2 17:36:55 2023,A template containing a practice and an experimental phase,yes,언어학과심리실험_B조_기말과제용심리실험.osexp,C:\Users\caphi\Downloads,no,mono,no,18,no,black,no,no,768,psycho,52,52,0,C:\Users\caphi\Downloads\quickrun.csv,psycho,Lentiform Loewenfeld,3.3.14,no,성적표,artifactual,same phoneme,0,None,,n,,g,None,a,0.0230000587180256,,2726.412099902518,,76295.86059995927,0.0230000587180256,1654.8484000377357,2,psycho,1024,2,48000,-16,experiment,999,odd,성냥,artifactual,,235180.7192999404,104757.1177999489,104756.9674999686,,102029.28450005128,3989.4304999616,104756.35849998798,,234449.5120999636,4042.948700021952,236952.28239998687,236952.6739999419,80339.3990000477,234663.7137000216,,235296.38790001627,234437.9380999599,Extended template,0,1.2458000564947724,53,yes,1024
0,0,0.0234814813464052,0.0234814813464052,white,yes,psycho,psycho,psycho,0,uniform,0,undefined,0,a,1,0,56,1,1,0,0,0,0,,56,0,56,56,0,56,1,56,56,Sat Dec  2 17:36:55 2023,A template containing a practice and an experimental phase,yes,언어학과심리실험_B조_기말과제용심리실험.osexp,C:\Users\caphi\Downloads,no,mono,no,18,no,black,no,no,768,psycho,53,53,0,C:\Users\caphi\Downloads\quickrun.csv,psycho,Lentiform Loewenfeld,3.3.14,no,학적,artifactual,same phoneme,0,None,,n,,g,None,a,0.0221999362111091,,2726.412099902518,,76295.86059995927,0.0221999362111091,1084.9658999359235,2,psycho,1024,2,48000,-16,experiment,999,odd,학술,artifactual,,237797.4422000116,104757.1177999489,104756.9674999686,,102029.28450005128,3989.4304999616,104756.35849998798,,237066.73930003308,4042.948700021952,238999.8351000249,239000.23140001576,80339.3990000477,237280.26829997543,,237913.85080001783,237054.45920000784,Extended template,0,1.2679999927058816,54,yes,1024
0,0,0.0234618169170888,0.0234618169170888,white,yes,psycho,psycho,psycho,0,uniform,0,undefined,0,n,1,0,57,1,1,0,0,0,0,,57,0,57,57,0,57,1,57,57,Sat Dec  2 17:36:55 2023,A template containing a practice and an experimental phase,yes,언어학과심리실험_B조_기말과제용심리실험.osexp,C:\Users\caphi\Downloads,no,mono,no,18,no,black,no,no,768,psycho,54,54,0,C:\Users\caphi\Downloads\quickrun.csv,psycho,Lentiform Loewenfeld,3.3.14,no,태양계,natural,inclusive,0,None,,n,,g,None,n,0.0223999377340078,,2726.412099902518,,76295.86059995927,0.0223999377340078,1923.499400028959,2,psycho,1024,2,48000,-16,experiment,999,odd,목성,natural,,239847.4634999875,104757.1177999489,104756.9674999686,,102029.28450005128,3989.4304999616,104756.35849998798,,239117.06530000083,4042.948700021952,241888.5066000512,241888.9069999568,80339.3990000477,239331.2084999634,,239963.9155999757,239101.3298999751,Extended template,0,1.2903999304398894,55,yes,1024
0,0,0.0235232125435556,0.0235232125435556,white,yes,psycho,psycho,psycho,0,uniform,0,undefined,0,a,1,0,58,1,1,0,0,0,0,,58,0,58,58,0,58,1,58,58,Sat Dec  2 17:36:55 2023,A template containing a practice and an experimental phase,yes,언어학과심리실험_B조_기말과제용심리실험.osexp,C:\Users\caphi\Downloads,no,mono,no,18,no,black,no,no,768,psycho,55,55,0,C:\Users\caphi\Downloads\quickrun.csv,psycho,Lentiform Loewenfeld,3.3.14,no,바람,natural,no-correlation,0,None,,n,,g,None,a,0.026899971999228,,2726.412099902518,,76295.86059995927,0.026899971999228,1376.1737999739123,2,psycho,1024,2,48000,-16,experiment,999,odd,버스,artifactual,,242730.94060004223,104757.1177999489,104756.9674999686,,102029.28450005128,3989.4304999616,104756.35849998798,,242000.1419000328,4042.948700021952,244224.5173000265,244224.96749996208,80339.3990000477,242213.68909999728,,242847.09569998083,241989.26369997207,Extended template,0,1.3172999024391174,56,yes,1024
0,0,0.0234982427699785,0.0234982427699785,white,yes,psycho,psycho,psycho,0,uniform,0,undefined,0,n,1,0,59,1,1,0,0,0,0,,59,0,59,59,0,59,1,59,59,Sat Dec  2 17:36:55 2023,A template containing a practice and an experimental phase,yes,언어학과심리실험_B조_기말과제용심리실험.osexp,C:\Users\caphi\Downloads,no,mono,no,18,no,black,no,no,768,psycho,56,56,0,C:\Users\caphi\Downloads\quickrun.csv,psycho,Lentiform Loewenfeld,3.3.14,no,전구,artifactual,similar-environmental,0,None,,n,,g,None,n,0.0220999354496598,,2726.412099902518,,76295.86059995927,0.0220999354496598,977.9447000473738,2,psycho,1024,2,48000,-16,experiment,999,odd,빛,natural,,245065.0997000048,104757.1177999489,104756.9674999686,,102029.28450005128,3989.4304999616,104756.35849998798,,244334.10239999648,4042.948700021952,246160.65700002943,246161.10819997263,80339.3990000477,244547.3579999525,,245181.5021999646,244319.90819994823,Extended template,0,1.3393998378887773,57,yes,1024
0,0,0.023484480936594,0.023484480936594,white,yes,psycho,psycho,psycho,0,uniform,0,undefined,0,n,0,0,60,1,1,0,0,0,0,,60,0,60,60,0,60,1,60,60,Sat Dec  2 17:36:55 2023,A template containing a practice and an experimental phase,yes,언어학과심리실험_B조_기말과제용심리실험.osexp,C:\Users\caphi\Downloads,no,mono,no,18,no,black,no,no,768,psycho,57,57,0,C:\Users\caphi\Downloads\quickrun.csv,psycho,Lentiform Loewenfeld,3.3.14,no,호랑이,natural,same phoneme,0,None,,n,,g,None,x,0.0227000564336776,,2726.412099902518,,76295.86059995927,0.0227000564336776,2189.300400088541,2,psycho,1024,2,48000,-16,experiment,999,odd,호수,natural,,247014.0027999878,104757.1177999489,104756.9674999686,,102029.28450005128,3989.4304999616,104756.35849998798,,246285.4394000024,4042.948700021952,249320.7395999925,249321.14490005188,80339.3990000477,246497.1547999885,,247130.23849995807,246262.837999966,Extended template,0,1.362099894322455,58,yes,1024
0,0,0.0234542343512935,0.0234542343512935,white,yes,psycho,psycho,psycho,0,uniform,0,undefined,0,a,1,0,61,1,1,0,0,0,0,,61,0,61,61,0,61,1,61,61,Sat Dec  2 17:36:55 2023,A template containing a practice and an experimental phase,yes,언어학과심리실험_B조_기말과제용심리실험.osexp,C:\Users\caphi\Downloads,no,mono,no,18,no,black,no,no,768,psycho,58,58,0,C:\Users\caphi\Downloads\quickrun.csv,psycho,Lentiform Loewenfeld,3.3.14,no,호수,natural,no-correlation,0,None,,n,,g,None,a,0.0216999324038624,,2726.412099902518,,76295.86059995927,0.0216999324038624,903.4805999835952,2,psycho,1024,2,48000,-16,experiment,999,odd,대학교,artifactual,,250164.78009999264,104757.1177999489,104756.9674999686,,102029.28450005128,3989.4304999616,104756.35849998798,,249434.0679999441,4042.948700021952,251184.9335000152,251185.34389999692,80339.3990000477,249647.35530002508,,250280.3786000004,249421.01519997232,Extended template,0,1.3837998267263174,59,yes,1024
0,0,0.0234316627029329,0.0234316627029329,white,yes,psycho,psycho,psycho,0,uniform,0,undefined,0,a,1,0,62,1,1,0,0,0,0,,62,0,62,62,0,62,1,62,62,Sat Dec  2 17:36:55 2023,A template containing a practice and an experimental phase,yes,언어학과심리실험_B조_기말과제용심리실험.osexp,C:\Users\caphi\Downloads,no,mono,no,18,no,black,no,no,768,psycho,59,59,0,C:\Users\caphi\Downloads\quickrun.csv,psycho,Lentiform Loewenfeld,3.3.14,no,프린터,artifactual,similar-environmental,0,None,,n,,g,None,a,0.0220999354496598,,2726.412099902518,,76295.86059995927,0.0220999354496598,796.0336999967694,2,psycho,1024,2,48000,-16,experiment,999,odd,종이,artifactual,,252031.12329996657,104757.1177999489,104756.9674999686,,102029.28450005128,3989.4304999616,104756.35849998798,,251300.8375000209,4042.948700021952,252944.42810001783,252944.85460000575,80339.3990000477,251513.77810002305,,252147.3776999628,251287.57409995887,Extended template,0,1.4058997621759772,60,yes,1024
0,0,0.0234098330170649,0.0234098330170649,white,yes,psycho,psycho,psycho,0,uniform,0,undefined,0,n,1,0,63,1,1,0,0,0,0,,63,0,63,63,0,63,1,63,63,Sat Dec  2 17:36:55 2023,A template containing a practice and an experimental phase,yes,언어학과심리실험_B조_기말과제용심리실험.osexp,C:\Users\caphi\Downloads,no,mono,no,18,no,black,no,no,768,psycho,60,60,0,C:\Users\caphi\Downloads\quickrun.csv,psycho,Lentiform Loewenfeld,3.3.14,no,물고기,natural,inclusive,0,None,,n,,g,None,n,0.0221000518649816,,2726.412099902518,,76295.86059995927,0.0221000518649816,1284.9774000933394,2,psycho,1024,2,48000,-16,experiment,999,odd,연어,natural,,253797.46829997748,104757.1177999489,104756.9674999686,,102029.28450005128,3989.4304999616,104756.35849998798,,253067.25159997583,4042.948700021952,255200.38489997387,255200.8086999413,80339.3990000477,253281.30919998512,,253914.347199956,253045.5595999956,Extended template,0,1.4279998140409589,61,yes,1024
0,0,0.0233983850076554,0.0233983850076554,white,yes,psycho,psycho,psycho,0,uniform,0,undefined,0,n,1,0,64,1,1,0,0,0,0,,64,0,64,64,0,64,1,64,64,Sat Dec  2 17:36:55 2023,A template containing a practice and an experimental phase,yes,언어학과심리실험_B조_기말과제용심리실험.osexp,C:\Users\caphi\Downloads,no,mono,no,18,no,black,no,no,768,psycho,61,61,0,C:\Users\caphi\Downloads\quickrun.csv,psycho,Lentiform Loewenfeld,3.3.14,no,소방서,artifactual,same phoneme,0,None,,n,,g,None,n,0.0227000564336776,,2726.412099902518,,76295.86059995927,0.0227000564336776,1123.6267000203952,2,psycho,1024,2,48000,-16,experiment,999,odd,소나무,natural,,256047.0687999623,104757.1177999489,104756.9674999686,,102029.28450005128,3989.4304999616,104756.35849998798,,255317.5688999472,4042.948700021952,257288.56609994543,257288.99639996237,80339.3990000477,255530.76710004825,,256163.7868999969,255297.1568000503,Extended template,0,1.4506998704746366,62,yes,1024
0,0,0.0233761892313995,0.0233761892313995,white,yes,psycho,psycho,psycho,0,uniform,0,undefined,0,n,1,0,65,1,1,0,0,0,0,,65,0,65,65,0,65,1,65,65,Sat Dec  2 17:36:55 2023,A template containing a practice and an experimental phase,yes,언어학과심리실험_B조_기말과제용심리실험.osexp,C:\Users\caphi\Downloads,no,mono,no,18,no,black,no,no,768,psycho,62,62,0,C:\Users\caphi\Downloads\quickrun.csv,psycho,Lentiform Loewenfeld,3.3.14,no,숲,natural,inclusive,0,None,,n,,g,None,n,0.0220000511035323,,2726.412099902518,,76295.86059995927,0.0220000511035323,647.5548999151215,2,psycho,1024,2,48000,-16,experiment,999,odd,나무,natural,,258131.1444999883,104757.1177999489,104756.9674999686,,102029.28450005128,3989.4304999616,104756.35849998798,,257399.554100004,4042.948700021952,258896.4770999737,258896.91090001725,80339.3990000477,257613.9682000503,,258247.8187000379,257389.0195999993,Extended template,0,1.4726999215781689,63,yes,1024
0,0,0.0234859362535644,0.0234859362535644,white,yes,psycho,psycho,psycho,0,uniform,0,undefined,0,n,0,0,66,1,1,0,0,0,0,,66,0,66,66,0,66,1,66,66,Sat Dec  2 17:36:55 2023,A template containing a practice and an experimental phase,yes,언어학과심리실험_B조_기말과제용심리실험.osexp,C:\Users\caphi\Downloads,no,mono,no,18,no,black,no,no,768,psycho,63,63,0,C:\Users\caphi\Downloads\quickrun.csv,psycho,Lentiform Loewenfeld,3.3.14,no,곡물,natural,inclusive,0,None,,n,,g,None,x,0.0303999986499547,,2726.412099902518,,76295.86059995927,0.0303999986499547,2968.8142999075358,2,psycho,1024,2,48000,-16,experiment,999,odd,밀,natural,,259748.0863999808,104757.1177999489,104756.9674999686,,102029.28450005128,3989.4304999616,104756.35849998798,,259017.3777999589,4042.948700021952,262834.4136000378,262834.9411999807,80339.3990000477,259230.39659997448,,259864.19720004775,258997.0806000056,Extended template,0,1.5030999202281237,64,yes,1024
0,0,0.0235061519421063,0.0235061519421063,white,yes,psycho,psycho,psycho,0,uniform,0,undefined,0,n,1,0,67,1,1,0,0,0,0,,67,0,67,67,0,67,1,67,67,Sat Dec  2 17:36:55 2023,A template containing a practice and an experimental phase,yes,언어학과심리실험_B조_기말과제용심리실험.osexp,C:\Users\caphi\Downloads,no,mono,no,18,no,black,no,no,768,psycho,64,64,0,C:\Users\caphi\Downloads\quickrun.csv,psycho,Lentiform Loewenfeld,3.3.14,no,해질녘,natural,same phoneme,0,None,,n,,g,None,n,0.0247999560087919,,2726.412099902518,,76295.86059995927,0.0247999560087919,3315.0817999849096,2,psycho,1024,2,48000,-16,experiment,999,odd,해마,natural,,263681.0734999599,104757.1177999489,104756.9674999686,,102029.28450005128,3989.4304999616,104756.35849998798,,262950.8054000325,4042.948700021952,267113.72020002455,267114.21589995734,80339.3990000477,263164.4519000547,,263797.568500042,262935.82669994794,Extended template,0,1.5278998762369156,65,yes,1024
0,0,0.0234939366099283,0.0234939366099283,white,yes,psycho,psycho,psycho,0,uniform,0,undefined,0,n,1,0,68,1,1,0,0,0,0,,68,0,68,68,0,68,1,68,68,Sat Dec  2 17:36:55 2023,A template containing a practice and an experimental phase,yes,언어학과심리실험_B조_기말과제용심리실험.osexp,C:\Users\caphi\Downloads,no,mono,no,18,no,black,no,no,768,psycho,65,65,0,C:\Users\caphi\Downloads\quickrun.csv,psycho,Lentiform Loewenfeld,3.3.14,no,세금,artifactual,same phoneme,0,None,,n,,g,None,n,0.0226999400183558,,2726.412099902518,,76295.86059995927,0.0226999400183558,3543.265499989502,2,psycho,1024,2,48000,-16,experiment,999,odd,세포,natural,,267965.18589998595,104757.1177999489,104756.9674999686,,102029.28450005128,3989.4304999616,104756.35849998798,,267234.3779000221,4042.948700021952,271625.1243000152,271625.5813000025,80339.3990000477,267448.03109997883,,268080.88190003764,267215.6879999675,Extended template,0,1.5505998162552714,66,yes,1024
0,0,0.0235358176669522,0.0235358176669522,white,yes,psycho,psycho,psycho,0,uniform,0,undefined,0,a,1,0,69,1,1,0,0,0,0,,69,0,69,69,0,69,1,69,69,Sat Dec  2 17:36:55 2023,A template containing a practice and an experimental phase,yes,언어학과심리실험_B조_기말과제용심리실험.osexp,C:\Users\caphi\Downloads,no,mono,no,18,no,black,no,no,768,psycho,66,66,0,C:\Users\caphi\Downloads\quickrun.csv,psycho,Lentiform Loewenfeld,3.3.14,no,호수,natural,no-correlation,0,None,,n,,g,None,a,0.0262999674305319,,2726.412099902518,,76295.86059995927,0.0262999674305319,1898.2664999784904,2,psycho,1024,2,48000,-16,experiment,999,odd,화장실,artifactual,,272482.1756000165,104757.1177999489,104756.9674999686,,102029.28450005128,3989.4304999616,104756.35849998798,,271751.48550001904,4042.948700021952,274497.55099997856,274498.03639994934,80339.3990000477,271964.6615999518,,272598.0438999832,271727.0048999926,Extended template,0,1.5768997836858034,67,yes,1024
0,0,0.0235191152622813,0.0235191152622813,white,yes,psycho,psycho,psycho,0,uniform,0,undefined,0,a,1,0,70,1,1,0,0,0,0,,70,0,70,70,0,70,1,70,70,Sat Dec  2 17:36:55 2023,A template containing a practice and an experimental phase,yes,언어학과심리실험_B조_기말과제용심리실험.osexp,C:\Users\caphi\Downloads,no,mono,no,18,no,black,no,no,768,psycho,67,67,0,C:\Users\caphi\Downloads\quickrun.csv,psycho,Lentiform Loewenfeld,3.3.14,no,옷,artifactual,inclusive,0,None,,n,,g,None,a,0.0224000541493296,,2726.412099902518,,76295.86059995927,0.0224000541493296,671.2708999402821,2,psycho,1024,2,48000,-16,experiment,999,odd,코트,artifactual,,275348.48559997045,104757.1177999489,104756.9674999686,,102029.28450005128,3989.4304999616,104756.35849998798,,274618.1139999535,4042.948700021952,276136.9375999784,276137.39209994674,80339.3990000477,274831.2478000298,,275464.5475000143,274599.15340004954,Extended template,0,1.599299837835133,68,yes,1024
0,0,0.0234927502933187,0.0234927502933187,white,yes,psycho,psycho,psycho,0,uniform,0,undefined,0,n,1,0,71,1,1,0,0,0,0,,71,0,71,71,0,71,1,71,71,Sat Dec  2 17:36:55 2023,A template containing a practice and an experimental phase,yes,언어학과심리실험_B조_기말과제용심리실험.osexp,C:\Users\caphi\Downloads,no,mono,no,18,no,black,no,no,768,psycho,68,68,0,C:\Users\caphi\Downloads\quickrun.csv,psycho,Lentiform Loewenfeld,3.3.14,no,모래,natural,similar-environmental,0,None,,n,,g,None,n,0.0216999324038624,,2726.412099902518,,76295.86059995927,0.0216999324038624,2662.179099977948,2,psycho,1024,2,48000,-16,experiment,999,odd,자갈,natural,,276981.8232000107,104757.1177999489,104756.9674999686,,102029.28450005128,3989.4304999616,104756.35849998798,,276251.29020004533,4042.948700021952,279761.1830000533,279761.639000033,80339.3990000477,276464.28139996715,,277097.9063999839,276238.4358999552,Extended template,0,1.6209997702389956,69,yes,1024
0,0,0.0234599973607276,0.0234599973607276,white,yes,psycho,psycho,psycho,0,uniform,0,undefined,0,a,1,0,72,1,1,0,0,0,0,,72,0,72,72,0,72,1,72,72,Sat Dec  2 17:36:55 2023,A template containing a practice and an experimental phase,yes,언어학과심리실험_B조_기말과제용심리실험.osexp,C:\Users\caphi\Downloads,no,mono,no,18,no,black,no,no,768,psycho,69,69,0,C:\Users\caphi\Downloads\quickrun.csv,psycho,Lentiform Loewenfeld,3.3.14,no,컴퓨터,artifactual,similar-environmental,0,None,,n,,g,None,a,0.0212000450119376,,2726.412099902518,,76295.86059995927,0.0212000450119376,1812.3001999920236,2,psycho,1024,2,48000,-16,experiment,999,odd,키보드,artifactual,,280615.4575999826,104757.1177999489,104756.9674999686,,102029.28450005128,3989.4304999616,104756.35849998798,,279884.89360001404,4042.948700021952,282545.295799966,282545.79470003955,80339.3990000477,280098.51609996986,,280731.8653999828,279863.2252999814,Extended template,0,1.6421998152509332,70,yes,1024
0,0,0.0234323924302425,0.0234323924302425,white,yes,psycho,psycho,psycho,0,uniform,0,undefined,0,a,0,0,73,1,1,0,0,0,0,,73,0,73,73,0,73,1,73,73,Sat Dec  2 17:36:55 2023,A template containing a practice and an experimental phase,yes,언어학과심리실험_B조_기말과제용심리실험.osexp,C:\Users\caphi\Downloads,no,mono,no,18,no,black,no,no,768,psycho,70,70,0,C:\Users\caphi\Downloads\quickrun.csv,psycho,Lentiform Loewenfeld,3.3.14,no,꽃,natural,no-correlation,0,None,,n,,g,None,n,0.0215000472962856,,2726.412099902518,,76295.86059995927,0.0215000472962856,3805.426599923521,2,psycho,1024,2,48000,-16,experiment,999,odd,경주,artifactual,,283398.1208000332,104757.1177999489,104756.9674999686,,102029.28450005128,3989.4304999616,104756.35849998798,,282667.31100005563,4042.948700021952,287321.4699999662,287321.94930000696,80339.3990000477,282881.6905999556,,283514.87950002775,282647.831600043,Extended template,0,1.6636998625472188,71,yes,1024
0,0,0.023415276599634,0.023415276599634,white,yes,psycho,psycho,psycho,0,uniform,0,undefined,0,n,1,0,74,1,1,0,0,0,0,,74,0,74,74,0,74,1,74,74,Sat Dec  2 17:36:55 2023,A template containing a practice and an experimental phase,yes,언어학과심리실험_B조_기말과제용심리실험.osexp,C:\Users\caphi\Downloads,no,mono,no,18,no,black,no,no,768,psycho,71,71,0,C:\Users\caphi\Downloads\quickrun.csv,psycho,Lentiform Loewenfeld,3.3.14,no,언덕,natural,no-correlation,0,None,,n,,g,None,n,0.0222000526264309,,2726.412099902518,,76295.86059995927,0.0222000526264309,2382.673499989324,2,psycho,1024,2,48000,-16,experiment,999,odd,고양이,natural,,288165.2886000229,104757.1177999489,104756.9674999686,,102029.28450005128,3989.4304999616,104756.35849998798,,287434.88259997685,4042.948700021952,290665.311699966,290665.7848999603,80339.3990000477,287648.50600005593,,288281.5781000536,287423.13310003374,Extended template,0,1.6858999151736498,72,yes,1024
0,0,0.0234013678480501,0.0234013678480501,white,yes,psycho,psycho,psycho,0,uniform,0,undefined,0,a,1,0,75,1,1,0,0,0,0,,75,0,75,75,0,75,1,75,75,Sat Dec  2 17:36:55 2023,A template containing a practice and an experimental phase,yes,언어학과심리실험_B조_기말과제용심리실험.osexp,C:\Users\caphi\Downloads,no,mono,no,18,no,black,no,no,768,psycho,72,72,0,C:\Users\caphi\Downloads\quickrun.csv,psycho,Lentiform Loewenfeld,3.3.14,no,화분,artifactual,no-correlation,0,None,,n,,g,None,a,0.0223999377340078,,2726.412099902518,,76295.86059995927,0.0223999377340078,761.2055001081899,2,psycho,1024,2,48000,-16,experiment,999,odd,신발,artifactual,,291515.7885999652,104757.1177999489,104756.9674999686,,102029.28450005128,3989.4304999616,104756.35849998798,,290784.2189000221,4042.948700021952,292394.0506000072,292394.5348999696,80339.3990000477,290998.67959995754,,291631.7653999431,290767.21810002346,Extended template,0,1.7082998529076576,73,yes,1024
0,0,0.0233783770503627,0.0233783770503627,white,yes,psycho,psycho,psycho,0,uniform,0,undefined,0,a,1,0,76,1,1,0,0,0,0,,76,0,76,76,0,76,1,76,76,Sat Dec  2 17:36:55 2023,A template containing a practice and an experimental phase,yes,언어학과심리실험_B조_기말과제용심리실험.osexp,C:\Users\caphi\Downloads,no,mono,no,18,no,black,no,no,768,psycho,73,73,0,C:\Users\caphi\Downloads\quickrun.csv,psycho,Lentiform Loewenfeld,3.3.14,no,로켓,artifactual,same phoneme,0,None,,n,,g,None,a,0.0217000488191843,,2726.412099902518,,76295.86059995927,0.0217000488191843,971.5679000364617,2,psycho,1024,2,48000,-16,experiment,999,odd,로봇,artifactual,,293248.27500002,104757.1177999489,104756.9674999686,,102029.28450005128,3989.4304999616,104756.35849998798,,292518.9010000322,4042.948700021952,294337.96649996657,294338.5075000115,80339.3990000477,292731.99919995386,,293365.231600008,292497.48450005427,Extended template,0,1.729999901726842,74,yes,1024
0,0,0.0233546659971276,0.0233546659971276,white,yes,psycho,psycho,psycho,0,uniform,0,undefined,0,n,1,0,77,1,1,0,0,0,0,,77,0,77,77,0,77,1,77,77,Sat Dec  2 17:36:55 2023,A template containing a practice and an experimental phase,yes,언어학과심리실험_B조_기말과제용심리실험.osexp,C:\Users\caphi\Downloads,no,mono,no,18,no,black,no,no,768,psycho,74,74,0,C:\Users\caphi\Downloads\quickrun.csv,psycho,Lentiform Loewenfeld,3.3.14,no,동굴,natural,similar-environmental,0,None,,n,,g,None,n,0.0216000480577349,,2726.412099902518,,76295.86059995927,0.0216000480577349,933.270699926652,2,psycho,1024,2,48000,-16,experiment,999,odd,박쥐,natural,,295181.7799999844,104757.1177999489,104756.9674999686,,102029.28450005128,3989.4304999616,104756.35849998798,,294450.5989999743,4042.948700021952,296233.2885999931,296233.7914999807,80339.3990000477,294665.7415999798,,295298.8983000396,294439.61630004924,Extended template,0,1.751599949784577,75,yes,1024
0,0,0.0234460519430668,0.0234460519430668,white,yes,psycho,psycho,psycho,0,uniform,0,undefined,0,n,1,0,78,1,1,0,0,0,0,,78,0,78,78,0,78,1,78,78,Sat Dec  2 17:36:55 2023,A template containing a practice and an experimental phase,yes,언어학과심리실험_B조_기말과제용심리실험.osexp,C:\Users\caphi\Downloads,no,mono,no,18,no,black,no,no,768,psycho,75,75,0,C:\Users\caphi\Downloads\quickrun.csv,psycho,Lentiform Loewenfeld,3.3.14,no,과일,natural,inclusive,0,None,,n,,g,None,n,0.0302999978885054,,2726.412099902518,,76295.86059995927,0.0302999978885054,809.6772999269888,2,psycho,1024,2,48000,-16,experiment,999,odd,사과,natural,,297082.7471000375,104757.1177999489,104756.9674999686,,102029.28450005128,3989.4304999616,104756.35849998798,,296352.1997999633,4042.948700021952,298009.45759995375,298009.96059994213,80339.3990000477,296565.1381999487,,297198.66780005395,296334.48950003367,Extended template,0,1.7818999476730824,76,yes,1024
0,0,0.0235363629392602,0.0235363629392602,white,yes,psycho,psycho,psycho,0,uniform,0,undefined,0,a,1,0,79,1,1,0,0,0,0,,79,0,79,79,0,79,1,79,79,Sat Dec  2 17:36:55 2023,A template containing a practice and an experimental phase,yes,언어학과심리실험_B조_기말과제용심리실험.osexp,C:\Users\caphi\Downloads,no,mono,no,18,no,black,no,no,768,psycho,76,76,0,C:\Users\caphi\Downloads\quickrun.csv,psycho,Lentiform Loewenfeld,3.3.14,no,모니터,artifactual,same phoneme,0,None,,n,,g,None,a,0.0303999986499547,,2726.412099902518,,76295.86059995927,0.0303999986499547,1818.6275999760253,2,psycho,1024,2,48000,-16,experiment,999,odd,모터,artifactual,,298865.44670001604,104757.1177999489,104756.9674999686,,102029.28450005128,3989.4304999616,104756.35849998798,,298135.7891999651,4042.948700021952,300802.2121000104,300802.838100004,80339.3990000477,298348.85890001897,,298982.2261000518,298112.3647999484,Extended template,0,1.8122999463230367,77,yes,1024
0,0,0.0235076922063644,0.0235076922063644,white,yes,psycho,psycho,psycho,0,uniform,0,undefined,0,a,1,0,80,1,1,0,0,0,0,,80,0,80,80,0,80,1,80,80,Sat Dec  2 17:36:55 2023,A template containing a practice and an experimental phase,yes,언어학과심리실험_B조_기말과제용심리실험.osexp,C:\Users\caphi\Downloads,no,mono,no,18,no,black,no,no,768,psycho,77,77,0,C:\Users\caphi\Downloads\quickrun.csv,psycho,Lentiform Loewenfeld,3.3.14,no,벌레,natural,same phoneme,0,None,,n,,g,None,a,0.0213000457733869,,2726.412099902518,,76295.86059995927,0.0213000457733869,1179.191599949263,2,psycho,1024,2,48000,-16,experiment,999,odd,발레,artifactual,,301648.80760002416,104757.1177999489,104756.9674999686,,102029.28450005128,3989.4304999616,104756.35849998798,,300918.69049996603,4042.948700021952,302945.7975999685,302946.30720000714,80339.3990000477,301132.5701000169,,301765.4022000497,300903.6442999495,Extended template,0,1.833599992096424,78,yes,1024
0,0,0.0234797473148077,0.0234797473148077,white,yes,psycho,psycho,psycho,0,uniform,0,undefined,0,n,1,0,81,1,1,0,0,0,0,,81,0,81,81,0,81,1,81,81,Sat Dec  2 17:36:55 2023,A template containing a practice and an experimental phase,yes,언어학과심리실험_B조_기말과제용심리실험.osexp,C:\Users\caphi\Downloads,no,mono,no,18,no,black,no,no,768,psycho,78,78,0,C:\Users\caphi\Downloads\quickrun.csv,psycho,Lentiform Loewenfeld,3.3.14,no,오일,natural,same phoneme,0,None,,n,,g,None,n,0.0213000457733869,,2726.412099902518,,76295.86059995927,0.0213000457733869,1293.5145000228658,2,psycho,1024,2,48000,-16,experiment,999,odd,오리,natural,,303799.49889995623,104757.1177999489,104756.9674999686,,102029.28450005128,3989.4304999616,104756.35849998798,,303068.3194999583,4042.948700021952,305210.2287999587,305210.76189994346,80339.3990000477,303282.5296999654,,303915.5002000043,303047.25289996713,Extended template,0,1.854900037869811,79,yes,1024
0,0,0.0234574996284209,0.0234574996284209,white,yes,psycho,psycho,psycho,0,uniform,0,undefined,0,a,1,0,82,1,1,0,0,0,0,,82,0,82,82,0,82,1,82,82,Sat Dec  2 17:36:55 2023,A template containing a practice and an experimental phase,yes,언어학과심리실험_B조_기말과제용심리실험.osexp,C:\Users\caphi\Downloads,no,mono,no,18,no,black,no,no,768,psycho,79,79,0,C:\Users\caphi\Downloads\quickrun.csv,psycho,Lentiform Loewenfeld,3.3.14,no,구름,natural,same phoneme,0,None,,n,,g,None,a,0.0216999324038624,,2726.412099902518,,76295.86059995927,0.0216999324038624,1098.446000018157,2,psycho,1024,2,48000,-16,experiment,999,odd,구슬,artifactual,,306065.8229000401,104757.1177999489,104756.9674999686,,102029.28450005128,3989.4304999616,104756.35849998798,,305335.5214999756,4042.948700021952,307282.6329000527,307283.15260005184,80339.3990000477,305548.30769996624,,306183.046799968,305321.9020999968,Extended template,0,1.876599970273673,80,yes,1024
0,0,0.0234419741541331,0.0234419741541331,white,yes,psycho,psycho,psycho,0,uniform,0,undefined,0,n,1,0,83,1,1,0,0,0,0,,83,0,83,83,0,83,1,83,83,Sat Dec  2 17:36:55 2023,A template containing a practice and an experimental phase,yes,언어학과심리실험_B조_기말과제용심리실험.osexp,C:\Users\caphi\Downloads,no,mono,no,18,no,black,no,no,768,psycho,80,80,0,C:\Users\caphi\Downloads\quickrun.csv,psycho,Lentiform Loewenfeld,3.3.14,no,멜블옴,non-word,non-word,0,None,,n,,g,None,n,0.0221999362111091,,2726.412099902518,,76295.86059995927,0.0221999362111091,1719.8565000435335,2,psycho,1024,2,48000,-16,experiment,999,odd,폭포,natural,,308149.99309997074,104757.1177999489,104756.9674999686,,102029.28450005128,3989.4304999616,104756.35849998798,,307419.4385999581,4042.948700021952,309986.124600051,309986.6588000441,80339.3990000477,307632.262500003,,308264.9692000123,307396.60300000105,Extended template,0,1.8987999064847827,81,yes,1024
0,0,0.0234341458985354,0.0234341458985354,white,yes,psycho,psycho,psycho,0,uniform,0,undefined,0,a,1,0,84,1,1,0,0,0,0,,84,0,84,84,0,84,1,84,84,Sat Dec  2 17:36:55 2023,A template containing a practice and an experimental phase,yes,언어학과심리실험_B조_기말과제용심리실험.osexp,C:\Users\caphi\Downloads,no,mono,no,18,no,black,no,no,768,psycho,81,81,0,C:\Users\caphi\Downloads\quickrun.csv,psycho,Lentiform Loewenfeld,3.3.14,no,기차,artifactual,no-correlation,0,None,,n,,g,None,a,0.022800057195127,,2726.412099902518,,76295.86059995927,0.022800057195127,899.3528999853879,2,psycho,1024,2,48000,-16,experiment,999,odd,가방,artifactual,,310832.532600034,104757.1177999489,104756.9674999686,,102029.28450005128,3989.4304999616,104756.35849998798,,310101.71349998564,4042.948700021952,311850.00019997824,311850.535399979,80339.3990000477,310316.24730001204,,310949.4357999647,310087.4255000381,Extended template,0,1.9215999636799097,82,yes,1024
0,0,0.0234144565884966,0.0234144565884966,white,yes,psycho,psycho,psycho,0,uniform,0,undefined,0,n,1,0,85,1,1,0,0,0,0,,85,0,85,85,0,85,1,85,85,Sat Dec  2 17:36:55 2023,A template containing a practice and an experimental phase,yes,언어학과심리실험_B조_기말과제용심리실험.osexp,C:\Users\caphi\Downloads,no,mono,no,18,no,black,no,no,768,psycho,82,82,0,C:\Users\caphi\Downloads\quickrun.csv,psycho,Lentiform Loewenfeld,3.3.14,no,호수,natural,no-correlation,0,None,,n,,g,None,n,0.0217999331653118,,2726.412099902518,,76295.86059995927,0.0217999331653118,993.4443000238388,2,psycho,1024,2,48000,-16,experiment,999,odd,소나무,natural,,312698.8236999605,104757.1177999489,104756.9674999686,,102029.28450005128,3989.4304999616,104756.35849998798,,311969.7355000535,4042.948700021952,313811.0820000293,313811.61299999803,80339.3990000477,312182.98120005056,,312816.07259996235,311950.8980000392,Extended template,0,1.9433998968452213,83,yes,1024
0,0,0.0233964265568093,0.0233964265568093,white,yes,psycho,psycho,psycho,0,uniform,0,undefined,0,n,1,0,86,1,1,0,0,0,0,,86,0,86,86,0,86,1,86,86,Sat Dec  2 17:36:55 2023,A template containing a practice and an experimental phase,yes,언어학과심리실험_B조_기말과제용심리실험.osexp,C:\Users\caphi\Downloads,no,mono,no,18,no,black,no,no,768,psycho,83,83,0,C:\Users\caphi\Downloads\quickrun.csv,psycho,Lentiform Loewenfeld,3.3.14,no,가을,natural,similar-environmental,0,None,,n,,g,None,n,0.0218999339267611,,2726.412099902518,,76295.86059995927,0.0218999339267611,1459.869600017555,2,psycho,1024,2,48000,-16,experiment,999,odd,낙엽,natural,,314649.82359996065,104757.1177999489,104756.9674999686,,102029.28450005128,3989.4304999616,104756.35849998798,,313918.8454999821,4042.948700021952,316226.97630000766,316227.5134000229,80339.3990000477,314132.8154000221,,314765.70919994265,313908.5336000426,Extended template,0,1.965299830771983,84,yes,1024
0,0,0.0233917620361727,0.0233917620361727,white,yes,psycho,psycho,psycho,0,uniform,0,undefined,0,n,1,0,87,1,1,0,0,0,0,,87,0,87,87,0,87,1,87,87,Sat Dec  2 17:36:55 2023,A template containing a practice and an experimental phase,yes,언어학과심리실험_B조_기말과제용심리실험.osexp,C:\Users\caphi\Downloads,no,mono,no,18,no,black,no,no,768,psycho,84,84,0,C:\Users\caphi\Downloads\quickrun.csv,psycho,Lentiform Loewenfeld,3.3.14,no,패딩,artifactual,similar-environmental,0,None,,n,,g,None,n,0.0229999423027038,,2726.412099902518,,76295.86059995927,0.0229999423027038,818.0514000123367,2,psycho,1024,2,48000,-16,experiment,999,odd,겨울,natural,,317082.40059996024,104757.1177999489,104756.9674999686,,102029.28450005128,3989.4304999616,104756.35849998798,,316352.69850003533,4042.948700021952,318018.8659999985,318019.41079995595,80339.3990000477,316565.609900048,,317199.61959996726,316329.5755999861,Extended template,0,1.9882997730746863,85,yes,1024
0,0,0.023415113182002,0.023415113182002,white,yes,psycho,psycho,psycho,0,uniform,0,undefined,0,a,1,0,88,1,1,0,0,0,0,,88,0,88,88,0,88,1,88,88,Sat Dec  2 17:36:55 2023,A template containing a practice and an experimental phase,yes,언어학과심리실험_B조_기말과제용심리실험.osexp,C:\Users\caphi\Downloads,no,mono,no,18,no,black,no,no,768,psycho,85,85,0,C:\Users\caphi\Downloads\quickrun.csv,psycho,Lentiform Loewenfeld,3.3.14,no,눈,natural,similar-environmental,0,None,,n,,g,None,a,0.0253999605774879,,2726.412099902518,,76295.86059995927,0.0253999605774879,1146.6722999466583,2,psycho,1024,2,48000,-16,experiment,999,odd,스키,artifactual,,318866.06529995333,104757.1177999489,104756.9674999686,,102029.28450005128,3989.4304999616,104756.35849998798,,318135.1970999968,4042.948700021952,320130.56850002613,320131.22199999634,80339.3990000477,318349.1369000403,,318982.31200000737,318120.68980000913,Extended template,0,2.0136997336521745,86,yes,1024
0,0,0.0234517207283569,0.0234517207283569,white,yes,psycho,psycho,psycho,0,uniform,0,undefined,0,x,0,0,89,1,1,0,0,0,0,,89,0,89,89,0,89,1,89,89,Sat Dec  2 17:36:55 2023,A template containing a practice and an experimental phase,yes,언어학과심리실험_B조_기말과제용심리실험.osexp,C:\Users\caphi\Downloads,no,mono,no,18,no,black,no,no,768,psycho,86,86,0,C:\Users\caphi\Downloads\quickrun.csv,psycho,Lentiform Loewenfeld,3.3.14,no,벨트,artifactual,non-word,0,None,,n,,g,None,a,0.0265999697148799,,2726.412099902518,,76295.86059995927,0.0265999697148799,2213.623599964194,2,psycho,1024,2,48000,-16,experiment,999,odd,진웬,non-word,,320998.5580999637,104757.1177999489,104756.9674999686,,102029.28450005128,3989.4304999616,104756.35849998798,,320268.5468000127,4042.948700021952,323330.54580003954,323331.1120000435,80339.3990000477,320487.4236000469,,321115.4303000076,320252.1225999808,Extended template,0,2.0402997033670545,87,yes,1024
0,0,0.0234295412982729,0.0234295412982729,white,yes,psycho,psycho,psycho,0,uniform,0,undefined,0,a,1,0,90,1,1,0,0,0,0,,90,0,90,90,0,90,1,90,90,Sat Dec  2 17:36:55 2023,A template containing a practice and an experimental phase,yes,언어학과심리실험_B조_기말과제용심리실험.osexp,C:\Users\caphi\Downloads,no,mono,no,18,no,black,no,no,768,psycho,87,87,0,C:\Users\caphi\Downloads\quickrun.csv,psycho,Lentiform Loewenfeld,3.3.14,no,성냥,artifactual,same phoneme,0,None,,n,,g,None,a,0.0214999308809638,,2726.412099902518,,76295.86059995927,0.0214999308809638,2501.917000045069,2,psycho,1024,2,48000,-16,experiment,999,odd,성적표,artifactual,,324182.07440001424,104757.1177999489,104756.9674999686,,102029.28450005128,3989.4304999616,104756.35849998798,,323452.0370999817,4042.948700021952,326802.4723000126,326803.0399000272,80339.3990000477,323665.90859997086,,324299.337000004,323430.37399998866,Extended template,0,2.0617996342480183,88,yes,1024
0,0,0.0234393225040998,0.0234393225040998,white,yes,psycho,psycho,psycho,0,uniform,0,undefined,0,a,1,0,91,1,1,0,0,0,0,,91,0,91,91,0,91,1,91,91,Sat Dec  2 17:36:55 2023,A template containing a practice and an experimental phase,yes,언어학과심리실험_B조_기말과제용심리실험.osexp,C:\Users\caphi\Downloads,no,mono,no,18,no,black,no,no,768,psycho,88,88,0,C:\Users\caphi\Downloads\quickrun.csv,psycho,Lentiform Loewenfeld,3.3.14,no,기계,artifactual,inclusive,0,None,,n,,g,None,a,0.024300068616867,,2726.412099902518,,76295.86059995927,0.024300068616867,1163.5666999500245,2,psycho,1024,2,48000,-16,experiment,999,odd,컴퓨터,artifactual,,327648.8581999438,104757.1177999489,104756.9674999686,,102029.28450005128,3989.4304999616,104756.35849998798,,326918.7881000107,4042.948700021952,328930.58199994266,328931.1755000381,80339.3990000477,327132.6438999968,,327765.68519999273,326905.8089000173,Extended template,0,2.0860997028648853,89,yes,1024
0,0,0.0234344417953656,0.0234344417953656,white,yes,psycho,psycho,psycho,0,uniform,0,undefined,0,a,1,0,92,1,1,0,0,0,0,,92,0,92,92,0,92,1,92,92,Sat Dec  2 17:36:55 2023,A template containing a practice and an experimental phase,yes,언어학과심리실험_B조_기말과제용심리실험.osexp,C:\Users\caphi\Downloads,no,mono,no,18,no,black,no,no,768,psycho,89,89,0,C:\Users\caphi\Downloads\quickrun.csv,psycho,Lentiform Loewenfeld,3.3.14,no,모자,artifactual,no-correlation,0,None,,n,,g,None,a,0.0230000587180256,,2726.412099902518,,76295.86059995927,0.0230000587180256,1070.3613000223413,2,psycho,1024,2,48000,-16,experiment,999,odd,마우스,artifactual,,329782.7326999977,104757.1177999489,104756.9674999686,,102029.28450005128,3989.4304999616,104756.35849998798,,329051.9353999989,4042.948700021952,330970.7793999696,330971.37309995014,80339.3990000477,329265.8652999671,,329899.1952999495,329033.5875999881,Extended template,0,2.109099761582911,90,yes,1024
0,0,0.023419778169757,0.023419778169757,white,yes,psycho,psycho,psycho,0,uniform,0,undefined,0,a,1,0,93,1,1,0,0,0,0,,93,0,93,93,0,93,1,93,93,Sat Dec  2 17:36:55 2023,A template containing a practice and an experimental phase,yes,언어학과심리실험_B조_기말과제용심리실험.osexp,C:\Users\caphi\Downloads,no,mono,no,18,no,black,no,no,768,psycho,90,90,0,C:\Users\caphi\Downloads\quickrun.csv,psycho,Lentiform Loewenfeld,3.3.14,no,카메라,artifactual,inclusive,0,None,,n,,g,None,a,0.0221000518649816,,2726.412099902518,,76295.86059995927,0.0221000518649816,708.3920000586659,2,psycho,1024,2,48000,-16,experiment,999,odd,렌즈,artifactual,,331833.2425999688,104757.1177999489,104756.9674999686,,102029.28450005128,3989.4304999616,104756.35849998798,,331101.9019000232,4042.948700021952,332658.90879998915,332659.472099971,80339.3990000477,331315.9845999908,,331949.3736999575,331079.0864999872,Extended template,0,2.1311998134478927,91,yes,1024
0,0,0.0234032581236375,0.0234032581236375,white,yes,psycho,psycho,psycho,0,uniform,0,undefined,0,a,1,0,94,1,1,0,0,0,0,,94,0,94,94,0,94,1,94,94,Sat Dec  2 17:36:55 2023,A template containing a practice and an experimental phase,yes,언어학과심리실험_B조_기말과제용심리실험.osexp,C:\Users\caphi\Downloads,no,mono,no,18,no,black,no,no,768,psycho,91,91,0,C:\Users\caphi\Downloads\quickrun.csv,psycho,Lentiform Loewenfeld,3.3.14,no,향수,artifactual,no-correlation,0,None,,n,,g,None,a,0.0218999339267611,,2726.412099902518,,76295.86059995927,0.0218999339267611,817.0007000444457,2,psycho,1024,2,48000,-16,experiment,999,odd,선풍기,artifactual,,333516.5379999671,104757.1177999489,104756.9674999686,,102029.28450005128,3989.4304999616,104756.35849998798,,332786.6889999714,4042.948700021952,334450.8790000109,334451.46510005,80339.3990000477,333000.0949000241,,333632.5192999793,332763.92920000944,Extended template,0,2.153099747374654,92,yes,1024
0,0,0.0233827934910853,0.0233827934910853,white,yes,psycho,psycho,psycho,0,uniform,0,undefined,0,x,1,0,95,1,1,0,0,0,0,,95,0,95,95,0,95,1,95,95,Sat Dec  2 17:36:55 2023,A template containing a practice and an experimental phase,yes,언어학과심리실험_B조_기말과제용심리실험.osexp,C:\Users\caphi\Downloads,no,mono,no,18,no,black,no,no,768,psycho,92,92,0,C:\Users\caphi\Downloads\quickrun.csv,psycho,Lentiform Loewenfeld,3.3.14,no,냉장고,artifactual,non-word,0,None,,n,,g,None,x,0.0215000472962856,,2726.412099902518,,76295.86059995927,0.0215000472962856,2377.351999981329,2,psycho,1024,2,48000,-16,experiment,999,odd,로방삭,non-word,,335300.0939999474,104757.1177999489,104756.9674999686,,102029.28450005128,3989.4304999616,104756.35849998798,,334569.2871999927,4042.948700021952,337795.44749995694,337796.0262000561,80339.3990000477,334783.0969999777,,335416.88200004864,334554.28020004183,Extended template,0,2.1745997946709394,93,yes,1024
0,0,0.0233936143365312,0.0233936143365312,white,yes,psycho,psycho,psycho,0,uniform,0,undefined,0,n,1,0,96,1,1,0,0,0,0,,96,0,96,96,0,96,1,96,96,Sat Dec  2 17:36:55 2023,A template containing a practice and an experimental phase,yes,언어학과심리실험_B조_기말과제용심리실험.osexp,C:\Users\caphi\Downloads,no,mono,no,18,no,black,no,no,768,psycho,93,93,0,C:\Users\caphi\Downloads\quickrun.csv,psycho,Lentiform Loewenfeld,3.3.14,no,얼음,natural,no-correlation,0,None,,n,,g,None,n,0.0243999529629945,,2726.412099902518,,76295.86059995927,0.0243999529629945,1059.5090000424534,2,psycho,1024,2,48000,-16,experiment,999,odd,돌,natural,,338649.60829995107,104757.1177999489,104756.9674999686,,102029.28450005128,3989.4304999616,104756.35849998798,,337920.16880004667,4042.948700021952,339827.42370001506,339828.0216000276,80339.3990000477,338134.4081000425,,338766.6169999866,337896.6892999597,Extended template,0,2.198999747633934,94,yes,1024
0,0,0.0233799966640378,0.0233799966640378,white,yes,psycho,psycho,psycho,0,uniform,0,undefined,0,n,1,0,97,1,1,0,0,0,0,,97,0,97,97,0,97,1,97,97,Sat Dec  2 17:36:55 2023,A template containing a practice and an experimental phase,yes,언어학과심리실험_B조_기말과제용심리실험.osexp,C:\Users\caphi\Downloads,no,mono,no,18,no,black,no,no,768,psycho,94,94,0,C:\Users\caphi\Downloads\quickrun.csv,psycho,Lentiform Loewenfeld,3.3.14,no,바닥,artifactual,same phoneme,0,None,,n,,g,None,n,0.0220999354496598,,2726.412099902518,,76295.86059995927,0.0220999354496598,625.9459001012146,2,psycho,1024,2,48000,-16,experiment,999,odd,바다,natural,,340689.2546999734,104757.1177999489,104756.9674999686,,102029.28450005128,3989.4304999616,104756.35849998798,,339953.99239996914,4042.948700021952,341427.4302000413,341428.0252000317,80339.3990000477,340166.5043999674,,340800.1848999411,339930.4899000563,Extended template,0,2.221099683083594,95,yes,1024
0,0,0.0233614543200625,0.0233614543200625,white,yes,psycho,psycho,psycho,0,uniform,0,undefined,0,a,1,0,98,1,1,0,0,0,0,,98,0,98,98,0,98,1,98,98,Sat Dec  2 17:36:55 2023,A template containing a practice and an experimental phase,yes,언어학과심리실험_B조_기말과제용심리실험.osexp,C:\Users\caphi\Downloads,no,mono,no,18,no,black,no,no,768,psycho,95,95,0,C:\Users\caphi\Downloads\quickrun.csv,psycho,Lentiform Loewenfeld,3.3.14,no,전기,natural,similar-environmental,0,None,,n,,g,None,a,0.0215999316424131,,2726.412099902518,,76295.86059995927,0.0215999316424131,746.6232000151649,2,psycho,1024,2,48000,-16,experiment,999,odd,전선,artifactual,,342283.4959999891,104757.1177999489,104756.9674999686,,102029.28450005128,3989.4304999616,104756.35849998798,,341553.2113000518,4042.948700021952,343147.769000032,343148.40609999374,80339.3990000477,341766.3209999446,,342399.78169999085,341530.6985999923,Extended template,0,2.242699614726007,96,yes,1024
0,0,0.0233711307561121,0.0233711307561121,white,yes,psycho,psycho,psycho,0,uniform,0,undefined,0,x,0,0,99,1,1,0,0,0,0,,99,0,99,99,0,99,1,99,99,Sat Dec  2 17:36:55 2023,A template containing a practice and an experimental phase,yes,언어학과심리실험_B조_기말과제용심리실험.osexp,C:\Users\caphi\Downloads,no,mono,no,18,no,black,no,no,768,psycho,96,96,0,C:\Users\caphi\Downloads\quickrun.csv,psycho,Lentiform Loewenfeld,3.3.14,no,절벽,natural,non-word,0,None,,n,,g,None,a,0.024300068616867,,2726.412099902518,,76295.86059995927,0.024300068616867,2013.600300066173,2,psycho,1024,2,48000,-16,experiment,999,odd,물로프,non-word,,344000.19060005434,104757.1177999489,104756.9674999686,,102029.28450005128,3989.4304999616,104756.35849998798,,343269.7734000394,4042.948700021952,346131.75309996586,346132.397999987,80339.3990000477,343483.6542999837,,344116.82879994623,343248.34429996554,Extended template,0,2.266999683342874,97,yes,1024
0,0,0.0233632626430112,0.0233632626430112,white,yes,psycho,psycho,psycho,0,uniform,0,undefined,0,n,1,0,100,1,1,0,0,0,0,,100,0,100,100,0,100,1,100,100,Sat Dec  2 17:36:55 2023,A template containing a practice and an experimental phase,yes,언어학과심리실험_B조_기말과제용심리실험.osexp,C:\Users\caphi\Downloads,no,mono,no,18,no,black,no,no,768,psycho,97,97,0,C:\Users\caphi\Downloads\quickrun.csv,psycho,Lentiform Loewenfeld,3.3.14,no,구두,artifactual,same phoneme,0,None,,n,,g,None,n,0.0226000556722283,,2726.412099902518,,76295.86059995927,0.0226000556722283,774.6299999998882,2,psycho,1024,2,48000,-16,experiment,999,odd,구름,natural,,346983.7257999461,104757.1177999489,104756.9674999686,,102029.28450005128,3989.4304999616,104756.35849998798,,346253.3616999863,4042.948700021952,347875.53079996724,347876.1443999829,80339.3990000477,346466.81360004004,,347099.52649998013,346233.9057000354,Extended template,0,2.2895997390151024,98,yes,1024
0,0,0.0233515118709718,0.0233515118709718,white,yes,psycho,psycho,psycho,0,uniform,0,undefined,0,a,1,0,101,1,1,0,0,0,0,,101,0,101,101,0,101,1,101,101,Sat Dec  2 17:36:55 2023,A template containing a practice and an experimental phase,yes,언어학과심리실험_B조_기말과제용심리실험.osexp,C:\Users\caphi\Downloads,no,mono,no,18,no,black,no,no,768,psycho,98,98,0,C:\Users\caphi\Downloads\quickrun.csv,psycho,Lentiform Loewenfeld,3.3.14,no,악어,natural,same phoneme,0,None,,n,,g,None,a,0.0221999362111091,,2726.412099902518,,76295.86059995927,0.0221999362111091,865.2440001023933,2,psycho,1024,2,48000,-16,experiment,999,odd,악기,artifactual,,348717.2332999762,104757.1177999489,104756.9674999686,,102029.28450005128,3989.4304999616,104756.35849998798,,347986.15160002373,4042.948700021952,349700.0237000175,349700.6413999479,80339.3990000477,348200.84649999626,,348833.3317999495,347976.1966000078,Extended template,0,2.3117996752262115,99,yes,1024
0,0,0.0233339960686862,0.0233339960686862,white,yes,psycho,psycho,psycho,0,uniform,0,undefined,0,n,1,0,102,1,1,0,0,0,0,,102,0,102,102,0,102,1,102,102,Sat Dec  2 17:36:55 2023,A template containing a practice and an experimental phase,yes,언어학과심리실험_B조_기말과제용심리실험.osexp,C:\Users\caphi\Downloads,no,mono,no,18,no,black,no,no,768,psycho,99,99,0,C:\Users\caphi\Downloads\quickrun.csv,psycho,Lentiform Loewenfeld,3.3.14,no,장슈,non-word,non-word,0,None,,n,,g,None,n,0.0215999316424131,,2726.412099902518,,76295.86059995927,0.0215999316424131,1158.313799998723,2,psycho,1024,2,48000,-16,experiment,999,odd,다람쥐,natural,,350566.7543000309,104757.1177999489,104756.9674999686,,102029.28450005128,3989.4304999616,104756.35849998798,,349836.93220000714,4042.948700021952,351843.3079000097,351843.9260999439,80339.3990000477,350050.4374000011,,350683.5892000236,349813.73139994685,Extended template,0,2.3333996068686247,100,yes,1024
0,0,0.0233267293320876,0.0233267293320876,white,yes,psycho,psycho,psycho,0,uniform,0,undefined,0,a,1,0,103,1,1,0,0,0,0,,103,0,103,103,0,103,1,103,103,Sat Dec  2 17:36:55 2023,A template containing a practice and an experimental phase,yes,언어학과심리실험_B조_기말과제용심리실험.osexp,C:\Users\caphi\Downloads,no,mono,no,18,no,black,no,no,768,psycho,100,100,0,C:\Users\caphi\Downloads\quickrun.csv,psycho,Lentiform Loewenfeld,3.3.14,no,꽃,natural,no-correlation,0,None,,n,,g,None,a,0.0226000556722283,,2726.412099902518,,76295.86059995927,0.0226000556722283,921.9160000793636,2,psycho,1024,2,48000,-16,experiment,999,odd,풍차,artifactual,,352700.8534000488,104757.1177999489,104756.9674999686,,102029.28450005128,3989.4304999616,104756.35849998798,,351970.3832999803,4042.948700021952,353740.0772999972,353740.711200051,80339.3990000477,352183.63089999184,,352816.74479995854,351945.1164000202,Extended template,0,2.355999662540853,101,yes,1024
0,0,0.0233098010842998,0.0233098010842998,white,yes,psycho,psycho,psycho,0,uniform,0,undefined,0,n,1,0,104,1,1,0,0,0,0,,104,0,104,104,0,104,1,104,104,Sat Dec  2 17:36:55 2023,A template containing a practice and an experimental phase,yes,언어학과심리실험_B조_기말과제용심리실험.osexp,C:\Users\caphi\Downloads,no,mono,no,18,no,black,no,no,768,psycho,101,101,0,C:\Users\caphi\Downloads\quickrun.csv,psycho,Lentiform Loewenfeld,3.3.14,no,늪,natural,similar-environmental,0,None,,n,,g,None,n,0.0216000480577349,,2726.412099902518,,76295.86059995927,0.0216000480577349,780.7410000823438,2,psycho,1024,2,48000,-16,experiment,999,odd,악어,natural,,354600.37999995984,104757.1177999489,104756.9674999686,,102029.28450005128,3989.4304999616,104756.35849998798,,353869.77979994845,4042.948700021952,355499.2946999846,355499.9231999973,80339.3990000477,354084.2042999575,,354717.27639995515,353851.5673000365,Extended template,0,2.377599710598588,102,yes,1024
0,0,0.0232951433027108,0.0232951433027108,white,yes,psycho,psycho,psycho,0,uniform,0,undefined,0,a,1,0,105,1,1,0,0,0,0,,105,0,105,105,0,105,1,105,105,Sat Dec  2 17:36:55 2023,A template containing a practice and an experimental phase,yes,언어학과심리실험_B조_기말과제용심리실험.osexp,C:\Users\caphi\Downloads,no,mono,no,18,no,black,no,no,768,psycho,102,102,0,C:\Users\caphi\Downloads\quickrun.csv,psycho,Lentiform Loewenfeld,3.3.14,no,영화,artifactual,similar-environmental,0,None,,n,,g,None,a,0.0218000495806336,,2726.412099902518,,76295.86059995927,0.0218000495806336,830.7198999682441,2,psycho,1024,2,48000,-16,experiment,999,odd,드라마,artifactual,,356366.6616999544,104757.1177999489,104756.9674999686,,102029.28450005128,3989.4304999616,104756.35849998798,,355635.8717000112,4042.948700021952,357315.8436999656,357316.49849994574,80339.3990000477,355850.3918000497,,356483.8278000243,355615.0772999972,Extended template,0,2.3993997601792216,103,yes,1024
0,0,0.0232711519437054,0.0232711519437054,white,yes,psycho,psycho,psycho,0,uniform,0,undefined,0,x,1,0,106,1,1,0,0,0,0,,106,0,106,106,0,106,1,106,106,Sat Dec  2 17:36:55 2023,A template containing a practice and an experimental phase,yes,언어학과심리실험_B조_기말과제용심리실험.osexp,C:\Users\caphi\Downloads,no,mono,no,18,no,black,no,no,768,psycho,103,103,0,C:\Users\caphi\Downloads\quickrun.csv,psycho,Lentiform Loewenfeld,3.3.14,no,사자,natural,non-word,0,None,,n,,g,None,x,0.0208000419661402,,2726.412099902518,,76295.86059995927,0.0208000419661402,1950.6899999687448,2,psycho,1024,2,48000,-16,experiment,999,odd,러스바이,non-word,,358167.5025000004,104757.1177999489,104756.9674999686,,102029.28450005128,3989.4304999616,104756.35849998798,,357436.71489995904,4042.948700021952,360235.5456999503,360236.1898999661,80339.3990000477,357649.8888999922,,358283.4983000066,357417.6230999874,Extended template,0,2.420199802145362,104,yes,1024
