acc,accuracy,average_response_time,avg_rt,background,bidi,canvas_backend,clock_backend,color_backend,compensation,coordinates,correct,correct_instructions,correct_keyboard_response,correct_response,correct_target,count_about_this_template,count_blank,count_block_loop,count_block_sequence,count_end_of_experiment,count_end_of_practice,count_experiment,count_experimental_loop,count_feedback,count_fixation,count_instructions,count_keyboard_response,count_logger,count_practice_loop,count_prime,count_reset_feedback,count_target,count_trial_sequence,datetime,description,disable_garbage_collection,experiment_file,experiment_path,font_bold,font_family,font_italic,font_size,font_underline,foreground,form_clicks,fullscreen,height,keyboard_backend,live_row,live_row_block_loop,live_row_practice_loop,logfile,mouse_backend,opensesame_codename,opensesame_version,practice,prime,prime_condition,relation,repeat_cycle,response,response_end_of_experiment,response_end_of_practice,response_feedback,response_instructions,response_keyboard_response,response_target,response_time,response_time_end_of_experiment,response_time_end_of_practice,response_time_feedback,response_time_instructions,response_time_keyboard_response,response_time_target,round_decimals,sampler_backend,sound_buf_size,sound_channels,sound_freq,sound_sample_size,start,subject_nr,subject_parity,target,target_condition,time_about_this_template,time_blank,time_block_loop,time_block_sequence,time_end_of_experiment,time_end_of_practice,time_experiment,time_experimental_loop,time_feedback,time_fixation,time_instructions,time_keyboard_response,time_logger,time_practice_loop,time_prime,time_reset_feedback,time_target,time_trial_sequence,title,total_correct,total_response_time,total_responses,uniform_coordinates,width
0,0,0.0218999339267611,0.0218999339267611,white,yes,psycho,psycho,psycho,0,uniform,0,undefined,0,a,1,0,0,0,0,0,0,0,0,,0,0,0,0,0,0,0,0,0,Mon Dec  4 21:02:01 2023,A template containing a practice and an experimental phase,yes,언어학과심리실험_B조_기말과제용심리실험.osexp,C:\Users\caphi\Downloads,no,mono,no,18,no,black,no,no,768,psycho,0,0,0,C:\Users\caphi\Downloads\quickrun.csv,psycho,Lentiform Loewenfeld,3.3.14,yes,구름,natural,same phoneme,0,None,,,,s,None,a,0.0218999339267611,,,,1413.344600005075,0.0218999339267611,879.2771999724209,2,psycho,1024,2,48000,-16,experiment,999,odd,구슬,artifactual,,12160.62520002015,11330.24150005076,11330.134500050915,,,9875.868400093168,,,11449.574100086464,9915.678900084458,13145.14640008565,13145.267900079489,11329.61300003808,11655.783300055193,,12265.235600061716,11424.68789999839,Extended template,0,0.0218999339267611,1,yes,1024
0,0,0.0219999928958714,0.0219999928958714,white,yes,psycho,psycho,psycho,0,uniform,0,undefined,0,n,1,0,1,0,0,0,0,0,0,,1,0,1,1,0,1,0,1,1,Mon Dec  4 21:02:01 2023,A template containing a practice and an experimental phase,yes,언어학과심리실험_B조_기말과제용심리실험.osexp,C:\Users\caphi\Downloads,no,mono,no,18,no,black,no,no,768,psycho,1,1,0,C:\Users\caphi\Downloads\quickrun.csv,psycho,Lentiform Loewenfeld,3.3.14,yes,꽃,natural,inclusive,0,None,,,,s,None,n,0.0221000518649816,,,,1413.344600005075,0.0221000518649816,307.37629998475313,2,psycho,1024,2,48000,-16,experiment,999,odd,해바라기,natural,,13964.002900058404,11330.24150005076,11330.134500050915,,,9875.868400093168,,,13253.987400094047,9915.678900084458,14376.5609000111,14376.676700077953,11329.61300003808,13458.670200081542,,14068.486500065774,13248.9866000833,Extended template,0,0.0439999857917428,2,yes,1024
0,0,0.022566644474864,0.022566644474864,white,yes,psycho,psycho,psycho,0,uniform,0,undefined,0,a,0,0,2,0,0,0,0,0,0,,2,0,2,2,0,2,0,2,2,Mon Dec  4 21:02:01 2023,A template containing a practice and an experimental phase,yes,언어학과심리실험_B조_기말과제용심리실험.osexp,C:\Users\caphi\Downloads,no,mono,no,18,no,black,no,no,768,psycho,2,2,0,C:\Users\caphi\Downloads\quickrun.csv,psycho,Lentiform Loewenfeld,3.3.14,yes,종이,artifactual,similar-environmental,0,None,,,,s,None,n,0.0236999476328492,,,,1413.344600005075,0.0236999476328492,35.027300007641315,2,psycho,1024,2,48000,-16,experiment,999,odd,프린터,artifactual,,15204.332099994645,11330.24150005076,11330.134500050915,,,9875.868400093168,,,14490.858700009994,9915.678900084458,15344.87740008626,15345.017699990422,11329.61300003808,14699.657600023784,,15308.942800038494,14482.136000064202,Extended template,0,0.067699933424592,3,yes,1024
0,0,0.0224999384954571,0.0224999384954571,white,yes,psycho,psycho,psycho,0,uniform,0,undefined,0,a,1,0,3,1,1,0,0,0,0,,3,0,3,3,0,3,1,3,3,Mon Dec  4 21:02:01 2023,A template containing a practice and an experimental phase,yes,언어학과심리실험_B조_기말과제용심리실험.osexp,C:\Users\caphi\Downloads,no,mono,no,18,no,black,no,no,768,psycho,0,0,0,C:\Users\caphi\Downloads\quickrun.csv,psycho,Lentiform Loewenfeld,3.3.14,no,경주,artifactual,no-correlation,0,None,,n,,s,None,a,0.0224999384954571,,636.7318000411615,,1413.344600005075,0.0224999384954571,1694.2636999301612,2,psycho,1024,2,48000,-16,experiment,999,odd,버스,artifactual,,16873.459100024775,16121.46080005914,16121.354500064626,,15483.494400046766,9875.868400093168,16120.826700003818,,16162.606800091453,9915.678900084458,18673.016300075687,18673.135800054297,11329.61300003808,16368.106100009754,,16977.947000064887,16157.355700037442,Extended template,0,0.0224999384954571,1,yes,1024
0,0,0.022349995560944,0.022349995560944,white,yes,psycho,psycho,psycho,0,uniform,0,undefined,0,n,1,0,4,1,1,0,0,0,0,,4,0,4,4,0,4,1,4,4,Mon Dec  4 21:02:01 2023,A template containing a practice and an experimental phase,yes,언어학과심리실험_B조_기말과제용심리실험.osexp,C:\Users\caphi\Downloads,no,mono,no,18,no,black,no,no,768,psycho,1,1,0,C:\Users\caphi\Downloads\quickrun.csv,psycho,Lentiform Loewenfeld,3.3.14,no,산,natural,similar-environmental,0,None,,n,,s,None,n,0.0222000526264309,,636.7318000411615,,1413.344600005075,0.0222000526264309,661.4163999911398,2,psycho,1024,2,48000,-16,experiment,999,odd,계곡,natural,,19491.21260002721,16121.46080005914,16121.354500064626,,15483.494400046766,9875.868400093168,16120.826700003818,,18781.430500093848,9915.678900084458,20257.498000049964,20257.621300057508,11329.61300003808,18987.121700076383,,19595.289700082503,18773.16600002814,Extended template,0,0.0446999911218881,2,yes,1024
0,0,0.0220333458855748,0.0220333458855748,white,yes,psycho,psycho,psycho,0,uniform,0,undefined,0,a,1,0,5,1,1,0,0,0,0,,5,0,5,5,0,5,1,5,5,Mon Dec  4 21:02:01 2023,A template containing a practice and an experimental phase,yes,언어학과심리실험_B조_기말과제용심리실험.osexp,C:\Users\caphi\Downloads,no,mono,no,18,no,black,no,no,768,psycho,2,2,0,C:\Users\caphi\Downloads\quickrun.csv,psycho,Lentiform Loewenfeld,3.3.14,no,구름,natural,same phoneme,0,None,,n,,s,None,a,0.0214000465348362,,636.7318000411615,,1413.344600005075,0.0214000465348362,1164.245699997991,2,psycho,1024,2,48000,-16,experiment,999,odd,구슬,artifactual,,21076.734100002795,16121.46080005914,16121.354500064626,,15483.494400046766,9875.868400093168,16120.826700003818,,20366.639800020494,9915.678900084458,22345.70679999888,22345.832400023937,11329.61300003808,20572.14460009709,,21180.775100016035,20358.07700001169,Extended template,0,0.0661000376567244,3,yes,1024
0,0,0.0219999928958714,0.0219999928958714,white,yes,psycho,psycho,psycho,0,uniform,0,undefined,0,a,1,0,6,1,1,0,0,0,0,,6,0,6,6,0,6,1,6,6,Mon Dec  4 21:02:01 2023,A template containing a practice and an experimental phase,yes,언어학과심리실험_B조_기말과제용심리실험.osexp,C:\Users\caphi\Downloads,no,mono,no,18,no,black,no,no,768,psycho,3,3,0,C:\Users\caphi\Downloads\quickrun.csv,psycho,Lentiform Loewenfeld,3.3.14,no,성냥,artifactual,same phoneme,0,None,,n,,s,None,a,0.0218999339267611,,636.7318000411615,,1413.344600005075,0.0218999339267611,861.4825999829918,2,psycho,1024,2,48000,-16,experiment,999,odd,성적표,artifactual,,23162.438600091264,16121.46080005914,16121.354500064626,,15483.494400046766,9875.868400093168,16120.826700003818,,22452.718600048684,9915.678900084458,24129.00180008728,24129.13310003933,11329.61300003808,22658.358000102453,,23266.79480005987,22443.540600012057,Extended template,0,0.0879999715834856,4,yes,1024
0,0,0.0222799833863973,0.0222799833863973,white,yes,psycho,psycho,psycho,0,uniform,0,undefined,0,n,1,0,7,1,1,0,0,0,0,,7,0,7,7,0,7,1,7,7,Mon Dec  4 21:02:01 2023,A template containing a practice and an experimental phase,yes,언어학과심리실험_B조_기말과제용심리실험.osexp,C:\Users\caphi\Downloads,no,mono,no,18,no,black,no,no,768,psycho,4,4,0,C:\Users\caphi\Downloads\quickrun.csv,psycho,Lentiform Loewenfeld,3.3.14,no,태양계,natural,inclusive,0,None,,n,,s,None,n,0.0233999453485012,,636.7318000411615,,1413.344600005075,0.0233999453485012,593.4936000267044,2,psycho,1024,2,48000,-16,experiment,999,odd,목성,natural,,24950.57690003887,16121.46080005914,16121.354500064626,,15483.494400046766,9875.868400093168,16120.826700003818,,24239.044700050727,9915.678900084458,25649.35250009876,25649.4944000151,11329.61300003808,24444.94310009759,,25055.18630007282,24230.65440007485,Extended template,0,0.1113999169319868,5,yes,1024
0,0,0.0225999974645674,0.0225999974645674,white,yes,psycho,psycho,psycho,0,uniform,0,undefined,0,a,1,0,8,1,1,0,0,0,0,,8,0,8,8,0,8,1,8,8,Mon Dec  4 21:02:01 2023,A template containing a practice and an experimental phase,yes,언어학과심리실험_B조_기말과제용심리실험.osexp,C:\Users\caphi\Downloads,no,mono,no,18,no,black,no,no,768,psycho,5,5,0,C:\Users\caphi\Downloads\quickrun.csv,psycho,Lentiform Loewenfeld,3.3.14,no,키보드,artifactual,similar-environmental,0,None,,n,,s,None,a,0.0242000678554177,,636.7318000411615,,1413.344600005075,0.0242000678554177,571.1274000350386,2,psycho,1024,2,48000,-16,experiment,999,odd,컴퓨터,artifactual,,26469.53320002649,16121.46080005914,16121.354500064626,,15483.494400046766,9875.868400093168,16120.826700003818,,25758.774499990977,9915.678900084458,27153.50110002328,27153.654400026426,11329.61300003808,25965.509800007567,,26581.68840000872,25749.844500096515,Extended template,0,0.1355999847874045,6,yes,1024
0,0,0.0231857078948191,0.0231857078948191,white,yes,psycho,psycho,psycho,0,uniform,0,undefined,0,n,1,0,9,1,1,0,0,0,0,,9,0,9,9,0,9,1,9,9,Mon Dec  4 21:02:01 2023,A template containing a practice and an experimental phase,yes,언어학과심리실험_B조_기말과제용심리실험.osexp,C:\Users\caphi\Downloads,no,mono,no,18,no,black,no,no,768,psycho,6,6,0,C:\Users\caphi\Downloads\quickrun.csv,psycho,Lentiform Loewenfeld,3.3.14,no,멜블옴,non-word,non-word,0,None,,n,,s,None,n,0.0266999704763293,,636.7318000411615,,1413.344600005075,0.0266999704763293,610.3967000963166,2,psycho,1024,2,48000,-16,experiment,999,odd,폭포,natural,,27974.798200069927,16121.46080005914,16121.354500064626,,15483.494400046766,9875.868400093168,16120.826700003818,,27263.335400028154,9915.678900084458,28689.646400045604,28689.82800003141,11329.61300003808,27469.664000091143,,28078.538100002334,27255.10710000526,Extended template,0,0.1622999552637338,7,yes,1024
0,0,0.0229749857680872,0.0229749857680872,white,yes,psycho,psycho,psycho,0,uniform,0,undefined,0,a,1,0,10,1,1,0,0,0,0,,10,0,10,10,0,10,1,10,10,Mon Dec  4 21:02:01 2023,A template containing a practice and an experimental phase,yes,언어학과심리실험_B조_기말과제용심리실험.osexp,C:\Users\caphi\Downloads,no,mono,no,18,no,black,no,no,768,psycho,7,7,0,C:\Users\caphi\Downloads\quickrun.csv,psycho,Lentiform Loewenfeld,3.3.14,no,바다,natural,same phoneme,0,None,,n,,s,None,a,0.0214999308809638,,636.7318000411615,,1413.344600005075,0.0214999308809638,989.1954000340776,2,psycho,1024,2,48000,-16,experiment,999,odd,바구니,artifactual,,29502.833000035025,16121.46080005914,16121.354500064626,,15483.494400046766,9875.868400093168,16120.826700003818,,28792.643500026315,9915.678900084458,30601.58770007547,30601.741300080903,11329.61300003808,28998.57460008934,,29611.59310000949,28783.91710005235,Extended template,0,0.1837998861446976,8,yes,1024
0,0,0.0230999818692604,0.0230999818692604,white,yes,psycho,psycho,psycho,0,uniform,0,undefined,0,a,1,0,11,1,1,0,0,0,0,,11,0,11,11,0,11,1,11,11,Mon Dec  4 21:02:01 2023,A template containing a practice and an experimental phase,yes,언어학과심리실험_B조_기말과제용심리실험.osexp,C:\Users\caphi\Downloads,no,mono,no,18,no,black,no,no,768,psycho,8,8,0,C:\Users\caphi\Downloads\quickrun.csv,psycho,Lentiform Loewenfeld,3.3.14,no,도미노,artifactual,same phoneme,0,None,,n,,s,None,a,0.0240999506786465,,636.7318000411615,,1413.344600005075,0.0240999506786465,588.4969000471756,2,psycho,1024,2,48000,-16,experiment,999,odd,도서,artifactual,,31429.113000049256,16121.46080005914,16121.354500064626,,15483.494400046766,9875.868400093168,16120.826700003818,,30717.935700085945,9915.678900084458,32121.876700082797,32122.05350003205,11329.61300003808,30924.154400010597,,31532.67830004916,30709.48190009221,Extended template,0,0.2078998368233442,9,yes,1024
0,0,0.0230599893257021,0.0230599893257021,white,yes,psycho,psycho,psycho,0,uniform,0,undefined,0,n,1,0,12,1,1,0,0,0,0,,12,0,12,12,0,12,1,12,12,Mon Dec  4 21:02:01 2023,A template containing a practice and an experimental phase,yes,언어학과심리실험_B조_기말과제용심리실험.osexp,C:\Users\caphi\Downloads,no,mono,no,18,no,black,no,no,768,psycho,9,9,0,C:\Users\caphi\Downloads\quickrun.csv,psycho,Lentiform Loewenfeld,3.3.14,no,늪,natural,similar-environmental,0,None,,n,,s,None,n,0.0227000564336776,,636.7318000411615,,1413.344600005075,0.0227000564336776,571.2958000367507,2,psycho,1024,2,48000,-16,experiment,999,odd,악어,natural,,32940.87630009744,16121.46080005914,16121.354500064626,,15483.494400046766,9875.868400093168,16120.826700003818,,32230.68670008797,9915.678900084458,33617.70790000446,33617.869900073856,11329.61300003808,32436.28770008217,,33045.590199995786,32222.21580008045,Extended template,0,0.2305998932570219,10,yes,1024
0,0,0.022872710939158,0.022872710939158,white,yes,psycho,psycho,psycho,0,uniform,0,undefined,0,n,1,0,13,1,1,0,0,0,0,,13,0,13,13,0,13,1,13,13,Mon Dec  4 21:02:01 2023,A template containing a practice and an experimental phase,yes,언어학과심리실험_B조_기말과제용심리실험.osexp,C:\Users\caphi\Downloads,no,mono,no,18,no,black,no,no,768,psycho,10,10,0,C:\Users\caphi\Downloads\quickrun.csv,psycho,Lentiform Loewenfeld,3.3.14,no,달력,artifactual,same phoneme,0,None,,n,,s,None,n,0.0209999270737171,,636.7318000411615,,1413.344600005075,0.0209999270737171,687.1931999921799,2,psycho,1024,2,48000,-16,experiment,999,odd,달,natural,,34448.947700089775,16121.46080005914,16121.354500064626,,15483.494400046766,9875.868400093168,16120.826700003818,,33738.585100043565,9915.678900084458,35241.650300100446,35241.81969999336,11329.61300003808,33944.13080008235,,34553.51320002228,33730.23830004968,Extended template,0,0.251599820330739,11,yes,1024
0,0,0.023133325157687,0.023133325157687,white,yes,psycho,psycho,psycho,0,uniform,0,undefined,0,a,1,0,14,1,1,0,0,0,0,,14,0,14,14,0,14,1,14,14,Mon Dec  4 21:02:01 2023,A template containing a practice and an experimental phase,yes,언어학과심리실험_B조_기말과제용심리실험.osexp,C:\Users\caphi\Downloads,no,mono,no,18,no,black,no,no,768,psycho,11,11,0,C:\Users\caphi\Downloads\quickrun.csv,psycho,Lentiform Loewenfeld,3.3.14,no,꽃,natural,no-correlation,0,None,,n,,s,None,a,0.0260000815615057,,636.7318000411615,,1413.344600005075,0.0260000815615057,635.0931000197306,2,psycho,1024,2,48000,-16,experiment,999,odd,경주,artifactual,,36061.28000002354,16121.46080005914,16121.354500064626,,15483.494400046766,9875.868400093168,16120.826700003818,,35349.65210000519,9915.678900084458,36801.47519998718,36801.68999999296,11329.61300003808,35556.3620000612,,36165.44450004585,35341.55610005837,Extended template,0,0.2775999018922448,12,yes,1024
0,0,0.0231384586256283,0.0231384586256283,white,yes,psycho,psycho,psycho,0,uniform,0,undefined,0,n,1,0,15,1,1,0,0,0,0,,15,0,15,15,0,15,1,15,15,Mon Dec  4 21:02:01 2023,A template containing a practice and an experimental phase,yes,언어학과심리실험_B조_기말과제용심리실험.osexp,C:\Users\caphi\Downloads,no,mono,no,18,no,black,no,no,768,psycho,12,12,0,C:\Users\caphi\Downloads\quickrun.csv,psycho,Lentiform Loewenfeld,3.3.14,no,호수,natural,no-correlation,0,None,,n,,s,None,n,0.0232000602409243,,636.7318000411615,,1413.344600005075,0.0232000602409243,624.0085000172257,2,psycho,1024,2,48000,-16,experiment,999,odd,소나무,natural,,37627.8235000791,16121.46080005914,16121.354500064626,,15483.494400046766,9875.868400093168,16120.826700003818,,36909.70820002258,9915.678900084458,38361.2875000108,38361.46799998824,11329.61300003808,37123.93990007695,,37736.53570003808,36901.15530008916,Extended template,0,0.3007999621331692,13,yes,1024
0,0,0.0230142863334289,0.0230142863334289,white,yes,psycho,psycho,psycho,0,uniform,0,undefined,0,n,1,0,16,1,1,0,0,0,0,,16,0,16,16,0,16,1,16,16,Mon Dec  4 21:02:01 2023,A template containing a practice and an experimental phase,yes,언어학과심리실험_B조_기말과제용심리실험.osexp,C:\Users\caphi\Downloads,no,mono,no,18,no,black,no,no,768,psycho,13,13,0,C:\Users\caphi\Downloads\quickrun.csv,psycho,Lentiform Loewenfeld,3.3.14,no,언덕,natural,no-correlation,0,None,,n,,s,None,n,0.0214000465348362,,636.7318000411615,,1413.344600005075,0.0214000465348362,603.8759000366554,2,psycho,1024,2,48000,-16,experiment,999,odd,고양이,natural,,39180.79990008846,16121.46080005914,16121.354500064626,,15483.494400046766,9875.868400093168,16120.826700003818,,38471.22800000943,9915.678900084458,39889.771300018765,39889.954400016,11329.61300003808,38676.80510005448,,39285.12370004319,38462.787900003605,Extended template,0,0.3222000086680054,14,yes,1024
0,0,0.0229133293032646,0.0229133293032646,white,yes,psycho,psycho,psycho,0,uniform,0,undefined,0,a,1,0,17,1,1,0,0,0,0,,17,0,17,17,0,17,1,17,17,Mon Dec  4 21:02:01 2023,A template containing a practice and an experimental phase,yes,언어학과심리실험_B조_기말과제용심리실험.osexp,C:\Users\caphi\Downloads,no,mono,no,18,no,black,no,no,768,psycho,14,14,0,C:\Users\caphi\Downloads\quickrun.csv,psycho,Lentiform Loewenfeld,3.3.14,no,모니터,artifactual,same phoneme,0,None,,n,,s,None,a,0.0214999308809638,,636.7318000411615,,1413.344600005075,0.0214999308809638,683.0797999864444,2,psycho,1024,2,48000,-16,experiment,999,odd,모터,artifactual,,40709.55200004392,16121.46080005914,16121.354500064626,,15483.494400046766,9875.868400093168,16120.826700003818,,39998.90570004936,9915.678900084458,41497.30640009511,41497.495600022376,11329.61300003808,40204.2898000218,,40813.46580001991,39990.17610005103,Extended template,0,0.3436999395489692,15,yes,1024
0,0,0.0228124918066896,0.0228124918066896,white,yes,psycho,psycho,psycho,0,uniform,0,undefined,0,a,1,0,18,1,1,0,0,0,0,,18,0,18,18,0,18,1,18,18,Mon Dec  4 21:02:01 2023,A template containing a practice and an experimental phase,yes,언어학과심리실험_B조_기말과제용심리실험.osexp,C:\Users\caphi\Downloads,no,mono,no,18,no,black,no,no,768,psycho,15,15,0,C:\Users\caphi\Downloads\quickrun.csv,psycho,Lentiform Loewenfeld,3.3.14,no,바다,natural,similar-environmental,0,None,,n,,s,None,a,0.0212999293580651,,636.7318000411615,,1413.344600005075,0.0212999293580651,829.5031000161543,2,psycho,1024,2,48000,-16,experiment,999,odd,배,artifactual,,42315.67250005901,16121.46080005914,16121.354500064626,,15483.494400046766,9875.868400093168,16120.826700003818,,41605.45430006459,9915.678900084458,43249.50670008548,43249.70030004624,11329.61300003808,41811.04719999712,,42419.16100005619,41597.01530006714,Extended template,0,0.3649998689070344,16,yes,1024
0,0,0.0237470479024683,0.0237470479024683,white,yes,psycho,psycho,psycho,0,uniform,0,undefined,0,a,1,0,19,1,1,0,0,0,0,,19,0,19,19,0,19,1,19,19,Mon Dec  4 21:02:01 2023,A template containing a practice and an experimental phase,yes,언어학과심리실험_B조_기말과제용심리실험.osexp,C:\Users\caphi\Downloads,no,mono,no,18,no,black,no,no,768,psycho,16,16,0,C:\Users\caphi\Downloads\quickrun.csv,psycho,Lentiform Loewenfeld,3.3.14,no,가방,artifactual,no-correlation,0,None,,n,,s,None,a,0.0386999454349279,,636.7318000411615,,1413.344600005075,0.0386999454349279,671.9946000957862,2,psycho,1024,2,48000,-16,experiment,999,odd,기차,artifactual,,44064.79219999164,16121.46080005914,16121.354500064626,,15483.494400046766,9875.868400093168,16120.826700003818,,43354.86520000268,9915.678900084458,44841.72220004257,44842.13940007612,11329.61300003808,43560.83060009405,,44168.7707999954,43346.51480009779,Extended template,0,0.4036998143419623,17,yes,1024
0,0,0.023655548122608,0.023655548122608,white,yes,psycho,psycho,psycho,0,uniform,0,undefined,0,n,1,0,20,1,1,0,0,0,0,,20,0,20,20,0,20,1,20,20,Mon Dec  4 21:02:01 2023,A template containing a practice and an experimental phase,yes,언어학과심리실험_B조_기말과제용심리실험.osexp,C:\Users\caphi\Downloads,no,mono,no,18,no,black,no,no,768,psycho,17,17,0,C:\Users\caphi\Downloads\quickrun.csv,psycho,Lentiform Loewenfeld,3.3.14,no,불,natural,no-correlation,0,None,,n,,s,None,n,0.0221000518649816,,636.7318000411615,,1413.344600005075,0.0221000518649816,576.715899980627,2,psycho,1024,2,48000,-16,experiment,999,odd,물고기,natural,,45680.11509999633,16121.46080005914,16121.354500064626,,15483.494400046766,9875.868400093168,16120.826700003818,,44969.93390005082,9915.678900084458,46361.50320002344,46361.71299999114,11329.61300003808,45175.87270005606,,45783.93140004482,44957.8804000048,Extended template,0,0.425799866206944,18,yes,1024
0,0,0.0235631473754581,0.0235631473754581,white,yes,psycho,psycho,psycho,0,uniform,0,undefined,0,a,1,0,21,1,1,0,0,0,0,,21,0,21,21,0,21,1,21,21,Mon Dec  4 21:02:01 2023,A template containing a practice and an experimental phase,yes,언어학과심리실험_B조_기말과제용심리실험.osexp,C:\Users\caphi\Downloads,no,mono,no,18,no,black,no,no,768,psycho,18,18,0,C:\Users\caphi\Downloads\quickrun.csv,psycho,Lentiform Loewenfeld,3.3.14,no,컴퓨터,artifactual,similar-environmental,0,None,,n,,s,None,a,0.0218999339267611,,636.7318000411615,,1413.344600005075,0.0218999339267611,604.5479999156669,2,psycho,1024,2,48000,-16,experiment,999,odd,키보드,artifactual,,47204.64610005729,16121.46080005914,16121.354500064626,,15483.494400046766,9875.868400093168,16120.826700003818,,46486.50150001049,9915.678900084458,47913.611700059846,47913.82830007933,11329.61300003808,46700.85230004042,,47308.27510007657,46476.850200095214,Extended template,0,0.4476998001337051,19,yes,1024
0,0,0.0235199928283691,0.0235199928283691,white,yes,psycho,psycho,psycho,0,uniform,0,undefined,0,n,1,0,22,1,1,0,0,0,0,,22,0,22,22,0,22,1,22,22,Mon Dec  4 21:02:01 2023,A template containing a practice and an experimental phase,yes,언어학과심리실험_B조_기말과제용심리실험.osexp,C:\Users\caphi\Downloads,no,mono,no,18,no,black,no,no,768,psycho,19,19,0,C:\Users\caphi\Downloads\quickrun.csv,psycho,Lentiform Loewenfeld,3.3.14,no,태양,natural,same phoneme,0,None,,n,,s,None,n,0.0227000564336776,,636.7318000411615,,1413.344600005075,0.0227000564336776,547.7834000485018,2,psycho,1024,2,48000,-16,experiment,999,odd,태풍,natural,,48729.6340999892,16121.46080005914,16121.354500064626,,15483.494400046766,9875.868400093168,16120.826700003818,,48019.91710008588,9915.678900084458,49385.675200028345,49385.89340006001,11329.61300003808,48225.76679999474,,48836.98180003557,48010.7003999874,Extended template,0,0.4703998565673828,20,yes,1024
0,0,0.0234571385330387,0.0234571385330387,white,yes,psycho,psycho,psycho,0,uniform,0,undefined,0,a,1,0,23,1,1,0,0,0,0,,23,0,23,23,0,23,1,23,23,Mon Dec  4 21:02:01 2023,A template containing a practice and an experimental phase,yes,언어학과심리실험_B조_기말과제용심리실험.osexp,C:\Users\caphi\Downloads,no,mono,no,18,no,black,no,no,768,psycho,20,20,0,C:\Users\caphi\Downloads\quickrun.csv,psycho,Lentiform Loewenfeld,3.3.14,no,선설수,non-word,non-word,0,None,,n,,s,None,a,0.0222000526264309,,636.7318000411615,,1413.344600005075,0.0222000526264309,565.9312000498176,2,psycho,1024,2,48000,-16,experiment,999,odd,시계,artifactual,,50210.54740005639,16121.46080005914,16121.354500064626,,15483.494400046766,9875.868400093168,16120.826700003818,,49501.40320009086,9915.678900084458,50881.72629999463,50881.9450000301,11329.61300003808,49706.78380003665,,50314.884899999015,49492.55409999751,Extended template,0,0.4925999091938138,21,yes,1024
0,0,0.0233863565054806,0.0233863565054806,white,yes,psycho,psycho,psycho,0,uniform,0,undefined,0,n,1,0,24,1,1,0,0,0,0,,24,0,24,24,0,24,1,24,24,Mon Dec  4 21:02:01 2023,A template containing a practice and an experimental phase,yes,언어학과심리실험_B조_기말과제용심리실험.osexp,C:\Users\caphi\Downloads,no,mono,no,18,no,black,no,no,768,psycho,21,21,0,C:\Users\caphi\Downloads\quickrun.csv,psycho,Lentiform Loewenfeld,3.3.14,no,세금,artifactual,same phoneme,0,None,,n,,s,None,n,0.0218999339267611,,636.7318000411615,,1413.344600005075,0.0218999339267611,978.3707999158652,2,psycho,1024,2,48000,-16,experiment,999,odd,세포,natural,,51702.644500066526,16121.46080005914,16121.354500064626,,15483.494400046766,9875.868400093168,16120.826700003818,,50993.186700041406,9915.678900084458,52786.13420005422,52786.36050003115,11329.61300003808,51198.757700040005,,51806.88440008089,50984.90160005167,Extended template,0,0.514499843120575,22,yes,1024
0,0,0.0233565123103882,0.0233565123103882,white,yes,psycho,psycho,psycho,0,uniform,0,undefined,0,a,1,0,25,1,1,0,0,0,0,,25,0,25,25,0,25,1,25,25,Mon Dec  4 21:02:01 2023,A template containing a practice and an experimental phase,yes,언어학과심리실험_B조_기말과제용심리실험.osexp,C:\Users\caphi\Downloads,no,mono,no,18,no,black,no,no,768,psycho,22,22,0,C:\Users\caphi\Downloads\quickrun.csv,psycho,Lentiform Loewenfeld,3.3.14,no,영화,artifactual,similar-environmental,0,None,,n,,s,None,a,0.0226999400183558,,636.7318000411615,,1413.344600005075,0.0226999400183558,1164.580999989994,2,psycho,1024,2,48000,-16,experiment,999,odd,드라마,artifactual,,53620.48510008026,16121.46080005914,16121.354500064626,,15483.494400046766,9875.868400093168,16120.826700003818,,52909.84700003173,9915.678900084458,54889.59720009007,54889.8680000566,11329.61300003808,53116.66190007236,,53724.27910007536,52901.60910005216,Extended template,0,0.5371997831389308,23,yes,1024
0,0,0.023283326299861,0.023283326299861,white,yes,psycho,psycho,psycho,0,uniform,0,undefined,0,a,1,0,26,1,1,0,0,0,0,,26,0,26,26,0,26,1,26,26,Mon Dec  4 21:02:01 2023,A template containing a practice and an experimental phase,yes,언어학과심리실험_B조_기말과제용심리실험.osexp,C:\Users\caphi\Downloads,no,mono,no,18,no,black,no,no,768,psycho,23,23,0,C:\Users\caphi\Downloads\quickrun.csv,psycho,Lentiform Loewenfeld,3.3.14,no,호수,natural,no-correlation,0,None,,n,,s,None,a,0.0216000480577349,,636.7318000411615,,1413.344600005075,0.0216000480577349,1467.930999933742,2,psycho,1024,2,48000,-16,experiment,999,odd,대학교,artifactual,,55709.71000008285,16121.46080005914,16121.354500064626,,15483.494400046766,9875.868400093168,16120.826700003818,,54998.58430004679,9915.678900084458,57282.18610002659,57282.42140007205,11329.61300003808,55204.56440001726,,55813.38330009021,54989.74580003414,Extended template,0,0.5587998311966658,24,yes,1024
0,0,0.0231959903612732,0.0231959903612732,white,yes,psycho,psycho,psycho,0,uniform,0,undefined,0,n,1,0,27,1,1,0,0,0,0,,27,0,27,27,0,27,1,27,27,Mon Dec  4 21:02:01 2023,A template containing a practice and an experimental phase,yes,언어학과심리실험_B조_기말과제용심리실험.osexp,C:\Users\caphi\Downloads,no,mono,no,18,no,black,no,no,768,psycho,24,24,0,C:\Users\caphi\Downloads\quickrun.csv,psycho,Lentiform Loewenfeld,3.3.14,no,호수,natural,same phoneme,0,None,,n,,s,None,n,0.0210999278351664,,636.7318000411615,,1413.344600005075,0.0210999278351664,464.7802000399679,2,psycho,1024,2,48000,-16,experiment,999,odd,호랑이,natural,,58095.92190000694,16121.46080005914,16121.354500064626,,15483.494400046766,9875.868400093168,16120.826700003818,,57386.6316000931,9915.678900084458,58665.86150007788,58666.09980002977,11329.61300003808,57592.017300077714,,58200.23900002707,57378.117299987935,Extended template,0,0.5798997590318322,25,yes,1024
0,0,0.0231461465143813,0.0231461465143813,white,yes,psycho,psycho,psycho,0,uniform,0,undefined,0,a,1,0,28,1,1,0,0,0,0,,28,0,28,28,0,28,1,28,28,Mon Dec  4 21:02:01 2023,A template containing a practice and an experimental phase,yes,언어학과심리실험_B조_기말과제용심리실험.osexp,C:\Users\caphi\Downloads,no,mono,no,18,no,black,no,no,768,psycho,25,25,0,C:\Users\caphi\Downloads\quickrun.csv,psycho,Lentiform Loewenfeld,3.3.14,no,바람,natural,no-correlation,0,None,,n,,s,None,a,0.0219000503420829,,636.7318000411615,,1413.344600005075,0.0219000503420829,563.6740999761969,2,psycho,1024,2,48000,-16,experiment,999,odd,버스,artifactual,,59485.528300050646,16121.46080005914,16121.354500064626,,15483.494400046766,9875.868400093168,16120.826700003818,,58775.88239999022,9915.678900084458,60154.46730004624,60154.71140004229,11329.61300003808,58981.14190006163,,59589.89880001173,58767.190400045365,Extended template,0,0.6017998093739152,26,yes,1024
0,0,0.0232333291528953,0.0232333291528953,white,yes,psycho,psycho,psycho,0,uniform,0,undefined,0,a,1,0,29,1,1,0,0,0,0,,29,0,29,29,0,29,1,29,29,Mon Dec  4 21:02:01 2023,A template containing a practice and an experimental phase,yes,언어학과심리실험_B조_기말과제용심리실험.osexp,C:\Users\caphi\Downloads,no,mono,no,18,no,black,no,no,768,psycho,26,26,0,C:\Users\caphi\Downloads\quickrun.csv,psycho,Lentiform Loewenfeld,3.3.14,no,시,artifactual,similar-environmental,0,None,,n,,s,None,a,0.0255000777542591,,636.7318000411615,,1413.344600005075,0.0255000777542591,757.7401000307873,2,psycho,1024,2,48000,-16,experiment,999,odd,소설,artifactual,,60972.48460003175,16121.46080005914,16121.354500064626,,15483.494400046766,9875.868400093168,16120.826700003818,,60263.81170004606,9915.678900084458,61834.96080001351,61835.25890007149,11329.61300003808,60469.129000091925,,61076.16070006043,60254.97410004027,Extended template,0,0.6272998871281743,27,yes,1024
0,0,0.0232499940986079,0.0232499940986079,white,yes,psycho,psycho,psycho,0,uniform,0,undefined,0,n,1,0,30,1,1,0,0,0,0,,30,0,30,30,0,30,1,30,30,Mon Dec  4 21:02:01 2023,A template containing a practice and an experimental phase,yes,언어학과심리실험_B조_기말과제용심리실험.osexp,C:\Users\caphi\Downloads,no,mono,no,18,no,black,no,no,768,psycho,27,27,0,C:\Users\caphi\Downloads\quickrun.csv,psycho,Lentiform Loewenfeld,3.3.14,no,물고기,natural,no-correlation,0,None,,n,,s,None,n,0.0236999476328492,,636.7318000411615,,1413.344600005075,0.0236999476328492,570.1987999491394,2,psycho,1024,2,48000,-16,experiment,999,odd,밤하늘,natural,,62655.96900007222,16121.46080005914,16121.354500064626,,15483.494400046766,9875.868400093168,16120.826700003818,,61945.35769999493,9915.678900084458,63330.99450008012,63331.26530004665,11329.61300003808,62151.126100099646,,62759.9786000792,61936.33659998886,Extended template,0,0.6509998347610235,28,yes,1024
0,0,0.0233310274779796,0.0233310274779796,white,yes,psycho,psycho,psycho,0,uniform,0,undefined,0,a,1,0,31,1,1,0,0,0,0,,31,0,31,31,0,31,1,31,31,Mon Dec  4 21:02:01 2023,A template containing a practice and an experimental phase,yes,언어학과심리실험_B조_기말과제용심리실험.osexp,C:\Users\caphi\Downloads,no,mono,no,18,no,black,no,no,768,psycho,28,28,0,C:\Users\caphi\Downloads\quickrun.csv,psycho,Lentiform Loewenfeld,3.3.14,no,기차,artifactual,no-correlation,0,None,,n,,s,None,a,0.0255999621003866,,636.7318000411615,,1413.344600005075,0.0255999621003866,907.8296000370756,2,psycho,1024,2,48000,-16,experiment,999,odd,가방,artifactual,,64165.39840004407,16121.46080005914,16121.354500064626,,15483.494400046766,9875.868400093168,16120.826700003818,,63454.83060006518,9915.678900084458,65178.83550003171,65179.14130003192,11329.61300003808,63660.473500029184,,64270.04970004782,63435.17140008044,Extended template,0,0.6765997968614101,29,yes,1024
0,0,0.023376658403625,0.023376658403625,white,yes,psycho,psycho,psycho,0,uniform,0,undefined,0,n,1,0,32,1,1,0,0,0,0,,32,0,32,32,0,32,1,32,32,Mon Dec  4 21:02:01 2023,A template containing a practice and an experimental phase,yes,언어학과심리실험_B조_기말과제용심리실험.osexp,C:\Users\caphi\Downloads,no,mono,no,18,no,black,no,no,768,psycho,29,29,0,C:\Users\caphi\Downloads\quickrun.csv,psycho,Lentiform Loewenfeld,3.3.14,no,밤하늘,natural,no-correlation,0,None,,n,,s,None,n,0.0246999552473425,,636.7318000411615,,1413.344600005075,0.0246999552473425,818.9640999771655,2,psycho,1024,2,48000,-16,experiment,999,odd,바위,natural,,65999.26290009171,16121.46080005914,16121.354500064626,,15483.494400046766,9875.868400093168,16120.826700003818,,65289.54940009862,9915.678900084458,66922.91110008955,66923.2318000868,11329.61300003808,65495.40810007602,,66102.94510005042,65280.69630009122,Extended template,0,0.7012997521087527,30,yes,1024
0,0,0.0233096708994238,0.0233096708994238,white,yes,psycho,psycho,psycho,0,uniform,0,undefined,0,x,1,0,33,1,1,0,0,0,0,,33,0,33,33,0,33,1,33,33,Mon Dec  4 21:02:01 2023,A template containing a practice and an experimental phase,yes,언어학과심리실험_B조_기말과제용심리실험.osexp,C:\Users\caphi\Downloads,no,mono,no,18,no,black,no,no,768,psycho,30,30,0,C:\Users\caphi\Downloads\quickrun.csv,psycho,Lentiform Loewenfeld,3.3.14,no,폭풍,natural,non-word,0,None,,n,,s,None,x,0.0213000457733869,,636.7318000411615,,1413.344600005075,0.0213000457733869,791.7573000304401,2,psycho,1024,2,48000,-16,experiment,999,odd,섬강,non-word,,67754.29330009501,16121.46080005914,16121.354500064626,,15483.494400046766,9875.868400093168,16120.826700003818,,67043.86600002181,9915.678900084458,68650.68720001727,68650.9495000355,11329.61300003808,67249.76780009456,,67858.09180000797,67034.71000003628,Extended template,0,0.7225997978821397,31,yes,1024
0,0,0.0232781203521881,0.0232781203521881,white,yes,psycho,psycho,psycho,0,uniform,0,undefined,0,x,1,0,34,1,1,0,0,0,0,,34,0,34,34,0,34,1,34,34,Mon Dec  4 21:02:01 2023,A template containing a practice and an experimental phase,yes,언어학과심리실험_B조_기말과제용심리실험.osexp,C:\Users\caphi\Downloads,no,mono,no,18,no,black,no,no,768,psycho,31,31,0,C:\Users\caphi\Downloads\quickrun.csv,psycho,Lentiform Loewenfeld,3.3.14,no,절벽,natural,non-word,0,None,,n,,s,None,x,0.0223000533878803,,636.7318000411615,,1413.344600005075,0.0223000533878803,715.7966999802738,2,psycho,1024,2,48000,-16,experiment,999,odd,물로프,non-word,,69470.25690006558,16121.46080005914,16121.354500064626,,15483.494400046766,9875.868400093168,16120.826700003818,,68760.27650001924,9915.678900084458,70290.94660002738,70291.23420000542,11329.61300003808,68966.13690000959,,69574.2387000937,68752.17910006177,Extended template,0,0.74489985127002,32,yes,1024
0,0,0.0232212054966525,0.0232212054966525,white,yes,psycho,psycho,psycho,0,uniform,0,undefined,0,a,1,0,35,1,1,0,0,0,0,,35,0,35,35,0,35,1,35,35,Mon Dec  4 21:02:01 2023,A template containing a practice and an experimental phase,yes,언어학과심리실험_B조_기말과제용심리실험.osexp,C:\Users\caphi\Downloads,no,mono,no,18,no,black,no,no,768,psycho,32,32,0,C:\Users\caphi\Downloads\quickrun.csv,psycho,Lentiform Loewenfeld,3.3.14,no,향수,artifactual,no-correlation,0,None,,n,,s,None,a,0.0213999301195144,,636.7318000411615,,1413.344600005075,0.0213999301195144,1204.074600012973,2,psycho,1024,2,48000,-16,experiment,999,odd,선풍기,artifactual,,71109.60730002262,16121.46080005914,16121.354500064626,,15483.494400046766,9875.868400093168,16120.826700003818,,70399.66460003052,9915.678900084458,72418.42740005814,72418.70350006502,11329.61300003808,70605.21940002218,,71213.42200005893,70390.71549999062,Extended template,0,0.7662997813895345,33,yes,1024
0,0,0.0232117599807679,0.0232117599807679,white,yes,psycho,psycho,psycho,0,uniform,0,undefined,0,n,1,0,36,1,1,0,0,0,0,,36,0,36,36,0,36,1,36,36,Mon Dec  4 21:02:01 2023,A template containing a practice and an experimental phase,yes,언어학과심리실험_B조_기말과제용심리실험.osexp,C:\Users\caphi\Downloads,no,mono,no,18,no,black,no,no,768,psycho,33,33,0,C:\Users\caphi\Downloads\quickrun.csv,psycho,Lentiform Loewenfeld,3.3.14,no,호랑이,natural,same phoneme,0,None,,n,,s,None,n,0.0229000579565763,,636.7318000411615,,1413.344600005075,0.0229000579565763,883.0380999715999,2,psycho,1024,2,48000,-16,experiment,999,odd,호수,natural,,73239.49810001068,16121.46080005914,16121.354500064626,,15483.494400046766,9875.868400093168,16120.826700003818,,72528.25199998915,9915.678900084458,74227.54160000477,74227.85200004,11329.61300003808,72734.47290004697,,73343.57940009795,72519.24120006151,Extended template,0,0.7891998393461108,34,yes,1024
0,0,0.0231742792363677,0.0231742792363677,white,yes,psycho,psycho,psycho,0,uniform,0,undefined,0,a,1,0,37,1,1,0,0,0,0,,37,0,37,37,0,37,1,37,37,Mon Dec  4 21:02:01 2023,A template containing a practice and an experimental phase,yes,언어학과심리실험_B조_기말과제용심리실험.osexp,C:\Users\caphi\Downloads,no,mono,no,18,no,black,no,no,768,psycho,34,34,0,C:\Users\caphi\Downloads\quickrun.csv,psycho,Lentiform Loewenfeld,3.3.14,no,플피,non-word,non-word,0,None,,n,,s,None,a,0.0218999339267611,,636.7318000411615,,1413.344600005075,0.0218999339267611,1994.636600022204,2,psycho,1024,2,48000,-16,experiment,999,odd,책상,artifactual,,75046.89590004273,16121.46080005914,16121.354500064626,,15483.494400046766,9875.868400093168,16120.826700003818,,74337.12859998923,9915.678900084458,77146.71980007552,77147.00510003604,11329.61300003808,74542.63879999053,,75151.18100005202,74328.90930003487,Extended template,0,0.811099773272872,35,yes,1024
0,0,0.023133328391446,0.023133328391446,white,yes,psycho,psycho,psycho,0,uniform,0,undefined,0,n,1,0,38,1,1,0,0,0,0,,38,0,38,38,0,38,1,38,38,Mon Dec  4 21:02:01 2023,A template containing a practice and an experimental phase,yes,언어학과심리실험_B조_기말과제용심리실험.osexp,C:\Users\caphi\Downloads,no,mono,no,18,no,black,no,no,768,psycho,35,35,0,C:\Users\caphi\Downloads\quickrun.csv,psycho,Lentiform Loewenfeld,3.3.14,no,장슈,non-word,non-word,0,None,,n,,s,None,n,0.0217000488191843,,636.7318000411615,,1413.344600005075,0.0217000488191843,553.84209996555,2,psycho,1024,2,48000,-16,experiment,999,odd,다람쥐,natural,,77967.96360006556,16121.46080005914,16121.354500064626,,15483.494400046766,9875.868400093168,16120.826700003818,,77257.37390003633,9915.678900084458,78626.42159999814,78626.72860000748,11329.61300003808,77463.01549999043,,78071.61950005684,77248.76540002879,Extended template,0,0.8327998220920563,36,yes,1024
0,0,0.0230972938289916,0.0230972938289916,white,yes,psycho,psycho,psycho,0,uniform,0,undefined,0,n,1,0,39,1,1,0,0,0,0,,39,0,39,39,0,39,1,39,39,Mon Dec  4 21:02:01 2023,A template containing a practice and an experimental phase,yes,언어학과심리실험_B조_기말과제용심리실험.osexp,C:\Users\caphi\Downloads,no,mono,no,18,no,black,no,no,768,psycho,36,36,0,C:\Users\caphi\Downloads\quickrun.csv,psycho,Lentiform Loewenfeld,3.3.14,no,대학교,artifactual,no-correlation,0,None,,n,,s,None,n,0.0218000495806336,,636.7318000411615,,1413.344600005075,0.0218000495806336,641.7797999456525,2,psycho,1024,2,48000,-16,experiment,999,odd,계곡,natural,,79447.77210010216,16121.46080005914,16121.354500064626,,15483.494400046766,9875.868400093168,16120.826700003818,,78738.02789999172,9915.678900084458,80194.58440004382,80194.88170009572,11329.61300003808,78943.52950004395,,79551.97190004401,78729.52660010196,Extended template,0,0.8545998716726899,37,yes,1024
0,0,0.0230578895609237,0.0230578895609237,white,yes,psycho,psycho,psycho,0,uniform,0,undefined,0,n,1,0,40,1,1,0,0,0,0,,40,0,40,40,0,40,1,40,40,Mon Dec  4 21:02:01 2023,A template containing a practice and an experimental phase,yes,언어학과심리실험_B조_기말과제용심리실험.osexp,C:\Users\caphi\Downloads,no,mono,no,18,no,black,no,no,768,psycho,37,37,0,C:\Users\caphi\Downloads\quickrun.csv,psycho,Lentiform Loewenfeld,3.3.14,no,스노우보드,artifactual,no-correlation,0,None,,n,,s,None,n,0.0215999316424131,,636.7318000411615,,1413.344600005075,0.0215999316424131,770.9192000329494,2,psycho,1024,2,48000,-16,experiment,999,odd,소나무,natural,,81015.0830000639,16121.46080005914,16121.354500064626,,15483.494400046766,9875.868400093168,16120.826700003818,,80305.05820002872,9915.678900084458,81890.95520006958,81891.29500009585,11329.61300003808,80510.53000008687,,81118.99880005512,80296.43860005308,Extended template,0,0.876199803315103,38,yes,1024
0,0,0.0230230731316483,0.0230230731316483,white,yes,psycho,psycho,psycho,0,uniform,0,undefined,0,a,1,0,41,1,1,0,0,0,0,,41,0,41,41,0,41,1,41,41,Mon Dec  4 21:02:01 2023,A template containing a practice and an experimental phase,yes,언어학과심리실험_B조_기말과제용심리실험.osexp,C:\Users\caphi\Downloads,no,mono,no,18,no,black,no,no,768,psycho,38,38,0,C:\Users\caphi\Downloads\quickrun.csv,psycho,Lentiform Loewenfeld,3.3.14,no,모자,artifactual,no-correlation,0,None,,n,,s,None,a,0.0217000488191843,,636.7318000411615,,1413.344600005075,0.0217000488191843,532.5145999668166,2,psycho,1024,2,48000,-16,experiment,999,odd,마우스,artifactual,,82709.21660005115,16121.46080005914,16121.354500064626,,15483.494400046766,9875.868400093168,16120.826700003818,,81999.15700010024,9915.678900084458,83347.34780003782,83347.65690006316,11329.61300003808,82205.10720007587,,82813.99200006854,81991.47880007513,Extended template,0,0.8978998521342874,39,yes,1024
0,0,0.022992497542873,0.022992497542873,white,yes,psycho,psycho,psycho,0,uniform,0,undefined,0,n,1,0,42,1,1,0,0,0,0,,42,0,42,42,0,42,1,42,42,Mon Dec  4 21:02:01 2023,A template containing a practice and an experimental phase,yes,언어학과심리실험_B조_기말과제용심리실험.osexp,C:\Users\caphi\Downloads,no,mono,no,18,no,black,no,no,768,psycho,39,39,0,C:\Users\caphi\Downloads\quickrun.csv,psycho,Lentiform Loewenfeld,3.3.14,no,수영,artifactual,similar-environmental,0,None,,n,,s,None,n,0.0218000495806336,,636.7318000411615,,1413.344600005075,0.0218000495806336,484.5582999987528,2,psycho,1024,2,48000,-16,experiment,999,odd,바다,natural,,84166.09340009745,16121.46080005914,16121.354500064626,,15483.494400046766,9875.868400093168,16120.826700003818,,83456.17550006136,9915.678900084458,84755.3659999976,84755.69090002682,11329.61300003808,83661.71890008263,,84269.87449999433,83447.03700009268,Extended template,0,0.919699901714921,40,yes,1024
0,0,0.0229463373060996,0.0229463373060996,white,yes,psycho,psycho,psycho,0,uniform,0,undefined,0,a,1,0,43,1,1,0,0,0,0,,43,0,43,43,0,43,1,43,43,Mon Dec  4 21:02:01 2023,A template containing a practice and an experimental phase,yes,언어학과심리실험_B조_기말과제용심리실험.osexp,C:\Users\caphi\Downloads,no,mono,no,18,no,black,no,no,768,psycho,40,40,0,C:\Users\caphi\Downloads\quickrun.csv,psycho,Lentiform Loewenfeld,3.3.14,no,해변,natural,similar-environmental,0,None,,n,,s,None,a,0.0210999278351664,,636.7318000411615,,1413.344600005075,0.0210999278351664,958.0763999838382,2,psycho,1024,2,48000,-16,experiment,999,odd,파라솔,artifactual,,85572.40850001108,16121.46080005914,16121.354500064626,,15483.494400046766,9875.868400093168,16120.826700003818,,84862.61930002365,9915.678900084458,86635.25640009902,86635.5713000521,11329.61300003808,85068.15120007377,,85676.19330005255,84854.02269999031,Extended template,0,0.9407998295500876,41,yes,1024
0,0,0.0229047589181434,0.0229047589181434,white,yes,psycho,psycho,psycho,0,uniform,0,undefined,0,n,1,0,44,1,1,0,0,0,0,,44,0,44,44,0,44,1,44,44,Mon Dec  4 21:02:01 2023,A template containing a practice and an experimental phase,yes,언어학과심리실험_B조_기말과제용심리실험.osexp,C:\Users\caphi\Downloads,no,mono,no,18,no,black,no,no,768,psycho,41,41,0,C:\Users\caphi\Downloads\quickrun.csv,psycho,Lentiform Loewenfeld,3.3.14,no,스노우보드,artifactual,no-correlation,0,None,,n,,s,None,n,0.0212000450119376,,636.7318000411615,,1413.344600005075,0.0212000450119376,491.30029999651015,2,psycho,1024,2,48000,-16,experiment,999,odd,꽃,natural,,87454.44810006302,16121.46080005914,16121.354500064626,,15483.494400046766,9875.868400093168,16120.826700003818,,86743.55960008688,9915.678900084458,88051.04900000151,88051.38280009851,11329.61300003808,86949.23060003202,,87558.77610004973,86734.50400005095,Extended template,0,0.9619998745620252,42,yes,1024
0,0,0.0229302284762609,0.0229302284762609,white,yes,psycho,psycho,psycho,0,uniform,0,undefined,0,n,1,0,45,1,1,0,0,0,0,,45,0,45,45,0,45,1,45,45,Mon Dec  4 21:02:01 2023,A template containing a practice and an experimental phase,yes,언어학과심리실험_B조_기말과제용심리실험.osexp,C:\Users\caphi\Downloads,no,mono,no,18,no,black,no,no,768,psycho,42,42,0,C:\Users\caphi\Downloads\quickrun.csv,psycho,Lentiform Loewenfeld,3.3.14,no,해질녘,natural,same phoneme,0,None,,n,,s,None,n,0.0239999499171972,,636.7318000411615,,1413.344600005075,0.0239999499171972,2253.7853000685573,2,psycho,1024,2,48000,-16,experiment,999,odd,해마,natural,,88871.08830001671,16121.46080005914,16121.354500064626,,15483.494400046766,9875.868400093168,16120.826700003818,,88161.33100003935,9915.678900084458,91229.5521000633,91229.89820002113,11329.61300003808,88366.68580002151,,88974.91460002493,88152.76269998867,Extended template,0,0.9859998244792224,43,yes,1024
0,0,0.0228931762235747,0.0228931762235747,white,yes,psycho,psycho,psycho,0,uniform,0,undefined,0,n,1,0,46,1,1,0,0,0,0,,46,0,46,46,0,46,1,46,46,Mon Dec  4 21:02:01 2023,A template containing a practice and an experimental phase,yes,언어학과심리실험_B조_기말과제용심리실험.osexp,C:\Users\caphi\Downloads,no,mono,no,18,no,black,no,no,768,psycho,43,43,0,C:\Users\caphi\Downloads\quickrun.csv,psycho,Lentiform Loewenfeld,3.3.14,no,새,natural,inclusive,0,None,,n,,s,None,n,0.0212999293580651,,636.7318000411615,,1413.344600005075,0.0212999293580651,511.0309000592679,2,psycho,1024,2,48000,-16,experiment,999,odd,까치,natural,,92051.7753000604,16121.46080005914,16121.354500064626,,15483.494400046766,9875.868400093168,16120.826700003818,,91337.95690000989,9915.678900084458,92667.43780008984,92667.7812000271,11329.61300003808,91543.38660009672,,92155.56550002655,91329.62289999703,Extended template,0,1.0072997538372874,44,yes,1024
0,0,0.0228444373028145,0.0228444373028145,white,yes,psycho,psycho,psycho,0,uniform,0,undefined,0,a,1,0,47,1,1,0,0,0,0,,47,0,47,47,0,47,1,47,47,Mon Dec  4 21:02:01 2023,A template containing a practice and an experimental phase,yes,언어학과심리실험_B조_기말과제용심리실험.osexp,C:\Users\caphi\Downloads,no,mono,no,18,no,black,no,no,768,psycho,44,44,0,C:\Users\caphi\Downloads\quickrun.csv,psycho,Lentiform Loewenfeld,3.3.14,no,바다,natural,same phoneme,0,None,,n,,s,None,a,0.0206999247893691,,636.7318000411615,,1413.344600005075,0.0206999247893691,645.4474000493065,2,psycho,1024,2,48000,-16,experiment,999,odd,바닥,artifactual,,93485.35630002152,16121.46080005914,16121.354500064626,,15483.494400046766,9875.868400093168,16120.826700003818,,92775.73150000536,9915.678900084458,94235.76070007402,94236.09250003938,11329.61300003808,92981.10840003936,,93589.12230003624,92767.03830005135,Extended template,0,1.0279996786266563,45,yes,1024
0,0,0.022795643535969,0.022795643535969,white,yes,psycho,psycho,psycho,0,uniform,0,undefined,0,a,1,0,48,1,1,0,0,0,0,,48,0,48,48,0,48,1,48,48,Mon Dec  4 21:02:01 2023,A template containing a practice and an experimental phase,yes,언어학과심리실험_B조_기말과제용심리실험.osexp,C:\Users\caphi\Downloads,no,mono,no,18,no,black,no,no,768,psycho,45,45,0,C:\Users\caphi\Downloads\quickrun.csv,psycho,Lentiform Loewenfeld,3.3.14,no,옷,artifactual,inclusive,0,None,,n,,s,None,a,0.0205999240279197,,636.7318000411615,,1413.344600005075,0.0205999240279197,512.7711000386626,2,psycho,1024,2,48000,-16,experiment,999,odd,코트,artifactual,,95066.16240006406,16121.46080005914,16121.354500064626,,15483.494400046766,9875.868400093168,16120.826700003818,,94355.7135000592,9915.678900084458,95683.2466000924,95683.59490006696,11329.61300003808,94561.22480006889,,95169.54120004084,94347.75260009336,Extended template,0,1.0485996026545763,46,yes,1024
0,0,0.0228085034982638,0.0228085034982638,white,yes,psycho,psycho,psycho,0,uniform,0,undefined,0,a,1,0,49,1,1,0,0,0,0,,49,0,49,49,0,49,1,49,49,Mon Dec  4 21:02:01 2023,A template containing a practice and an experimental phase,yes,언어학과심리실험_B조_기말과제용심리실험.osexp,C:\Users\caphi\Downloads,no,mono,no,18,no,black,no,no,768,psycho,46,46,0,C:\Users\caphi\Downloads\quickrun.csv,psycho,Lentiform Loewenfeld,3.3.14,no,종이,artifactual,similar-environmental,0,None,,n,,s,None,a,0.023400061763823,,636.7318000411615,,1413.344600005075,0.023400061763823,948.7493999768049,2,psycho,1024,2,48000,-16,experiment,999,odd,프린터,artifactual,,96502.0962000126,16121.46080005914,16121.354500064626,,15483.494400046766,9875.868400093168,16120.826700003818,,95793.0151000619,9915.678900084458,97555.5475000292,97555.90400006622,11329.61300003808,95998.59620002098,,96605.81870004536,95784.59350008052,Extended template,0,1.0719996644183991,47,yes,1024
0,0,0.0227895749655241,0.0227895749655241,white,yes,psycho,psycho,psycho,0,uniform,0,undefined,0,a,1,0,50,1,1,0,0,0,0,,50,0,50,50,0,50,1,50,50,Mon Dec  4 21:02:01 2023,A template containing a practice and an experimental phase,yes,언어학과심리실험_B조_기말과제용심리실험.osexp,C:\Users\caphi\Downloads,no,mono,no,18,no,black,no,no,768,psycho,47,47,0,C:\Users\caphi\Downloads\quickrun.csv,psycho,Lentiform Loewenfeld,3.3.14,no,불,natural,similar-environmental,0,None,,n,,s,None,a,0.0218999339267611,,636.7318000411615,,1413.344600005075,0.0218999339267611,798.2533999020234,2,psycho,1024,2,48000,-16,experiment,999,odd,소화기,artifactual,,98372.77330004144,16121.46080005914,16121.354500064626,,15483.494400046766,9875.868400093168,16120.826700003818,,97662.66880009788,9915.678900084458,99275.78530006576,99276.14170010202,11329.61300003808,97868.32920007872,,98476.575500099,97654.90550000686,Extended template,0,1.0938995983451605,48,yes,1024
0,0,0.0227673397380478,0.0227673397380478,white,yes,psycho,psycho,psycho,0,uniform,0,undefined,0,n,1,0,51,1,1,0,0,0,0,,51,0,51,51,0,51,1,51,51,Mon Dec  4 21:02:01 2023,A template containing a practice and an experimental phase,yes,언어학과심리실험_B조_기말과제용심리실험.osexp,C:\Users\caphi\Downloads,no,mono,no,18,no,black,no,no,768,psycho,48,48,0,C:\Users\caphi\Downloads\quickrun.csv,psycho,Lentiform Loewenfeld,3.3.14,no,악어,natural,similar-environmental,0,None,,n,,s,None,n,0.0217000488191843,,636.7318000411615,,1413.344600005075,0.0217000488191843,1066.3632999639958,2,psycho,1024,2,48000,-16,experiment,999,odd,늪,natural,,100104.38000003342,16121.46080005914,16121.354500064626,,15483.494400046766,9875.868400093168,16120.826700003818,,99394.10909998696,9915.678900084458,101275.78240004368,101276.17930003908,11329.61300003808,99599.6578000486,,100208.34850007668,99385.81860007253,Extended template,0,1.1155996471643448,49,yes,1024
0,0,0.0227479939348995,0.0227479939348995,white,yes,psycho,psycho,psycho,0,uniform,0,undefined,0,a,1,0,52,1,1,0,0,0,0,,52,0,52,52,0,52,1,52,52,Mon Dec  4 21:02:01 2023,A template containing a practice and an experimental phase,yes,언어학과심리실험_B조_기말과제용심리실험.osexp,C:\Users\caphi\Downloads,no,mono,no,18,no,black,no,no,768,psycho,49,49,0,C:\Users\caphi\Downloads\quickrun.csv,psycho,Lentiform Loewenfeld,3.3.14,no,국가,artifactual,inclusive,0,None,,n,,s,None,a,0.0218000495806336,,636.7318000411615,,1413.344600005075,0.0218000495806336,695.5130000133067,2,psycho,1024,2,48000,-16,experiment,999,odd,대한민국,artifactual,,102099.97169999406,16121.46080005914,16121.354500064626,,15483.494400046766,9875.868400093168,16120.826700003818,,101390.75830008367,9915.678900084458,102900.16650001051,102900.5353000248,11329.61300003808,101596.46920009982,,102203.74420005828,101382.59709998964,Extended template,0,1.1373996967449784,50,yes,1024
0,0,0.0229156804362348,0.0229156804362348,white,yes,psycho,psycho,psycho,0,uniform,0,undefined,0,n,1,0,53,1,1,0,0,0,0,,53,0,53,53,0,53,1,53,53,Mon Dec  4 21:02:01 2023,A template containing a practice and an experimental phase,yes,언어학과심리실험_B조_기말과제용심리실험.osexp,C:\Users\caphi\Downloads,no,mono,no,18,no,black,no,no,768,psycho,50,50,0,C:\Users\caphi\Downloads\quickrun.csv,psycho,Lentiform Loewenfeld,3.3.14,no,보트,artifactual,same phoneme,0,None,,n,,s,None,n,0.0313000055029988,,636.7318000411615,,1413.344600005075,0.0313000055029988,523.2122999150306,2,psycho,1024,2,48000,-16,experiment,999,odd,보름달,natural,,103720.10850009974,16121.46080005914,16121.354500064626,,15483.494400046766,9875.868400093168,16120.826700003818,,103010.7087000506,9915.678900084458,104348.2723000925,104348.68040005676,11329.61300003808,103216.04379999916,,103823.70150007772,103002.40070000292,Extended template,0,1.1686997022479773,51,yes,1024
0,0,0.0228865313916825,0.0228865313916825,white,yes,psycho,psycho,psycho,0,uniform,0,undefined,0,n,0,0,54,1,1,0,0,0,0,,54,0,54,54,0,54,1,54,54,Mon Dec  4 21:02:01 2023,A template containing a practice and an experimental phase,yes,언어학과심리실험_B조_기말과제용심리실험.osexp,C:\Users\caphi\Downloads,no,mono,no,18,no,black,no,no,768,psycho,51,51,0,C:\Users\caphi\Downloads\quickrun.csv,psycho,Lentiform Loewenfeld,3.3.14,no,달,artifactual,same phoneme,0,None,,n,,s,None,a,0.0213999301195144,,636.7318000411615,,1413.344600005075,0.0213999301195144,669.575700070709,2,psycho,1024,2,48000,-16,experiment,999,odd,달력,natural,,105178.8142999867,16121.46080005914,16121.354500064626,,15483.494400046766,9875.868400093168,16120.826700003818,,104468.67950004524,9915.678900084458,105955.78220009338,105956.16360008717,11329.61300003808,104674.15289999916,,105285.25399998762,104460.5282000266,Extended template,0,1.1900996323674915,52,yes,1024
0,0,0.0230207476975782,0.0230207476975782,white,yes,psycho,psycho,psycho,0,uniform,0,undefined,0,a,1,0,55,1,1,0,0,0,0,,55,0,55,55,0,55,1,55,55,Mon Dec  4 21:02:01 2023,A template containing a practice and an experimental phase,yes,언어학과심리실험_B조_기말과제용심리실험.osexp,C:\Users\caphi\Downloads,no,mono,no,18,no,black,no,no,768,psycho,52,52,0,C:\Users\caphi\Downloads\quickrun.csv,psycho,Lentiform Loewenfeld,3.3.14,no,벌레,natural,same phoneme,0,None,,n,,s,None,a,0.0299999956041574,,636.7318000411615,,1413.344600005075,0.0299999956041574,1292.0573999872431,2,psycho,1024,2,48000,-16,experiment,999,odd,발레,artifactual,,106774.88790010102,16121.46080005914,16121.354500064626,,15483.494400046766,9875.868400093168,16120.826700003818,,106064.8262000177,9915.678900084458,108171.7244000174,108172.11090005004,11329.61300003808,106270.01290000044,,106878.7215000484,106056.61650002004,Extended template,0,1.2200996279716492,53,yes,1024
0,0,0.0230018437529603,0.0230018437529603,white,yes,psycho,psycho,psycho,0,uniform,0,undefined,0,n,1,0,56,1,1,0,0,0,0,,56,0,56,56,0,56,1,56,56,Mon Dec  4 21:02:01 2023,A template containing a practice and an experimental phase,yes,언어학과심리실험_B조_기말과제용심리실험.osexp,C:\Users\caphi\Downloads,no,mono,no,18,no,black,no,no,768,psycho,53,53,0,C:\Users\caphi\Downloads\quickrun.csv,psycho,Lentiform Loewenfeld,3.3.14,no,모래,natural,similar-environmental,0,None,,n,,s,None,n,0.0219999346882104,,636.7318000411615,,1413.344600005075,0.0219999346882104,716.3566999370232,2,psycho,1024,2,48000,-16,experiment,999,odd,자갈,natural,,108991.17530009244,16121.46080005914,16121.354500064626,,15483.494400046766,9875.868400093168,16120.826700003818,,108280.98849998789,9915.678900084458,109811.8827000726,109812.3738000868,11329.61300003808,108486.33920005524,,109094.57310009748,108272.77330006471,Extended template,0,1.2420995626598597,54,yes,1024
0,0,0.0229927182028239,0.0229927182028239,white,yes,psycho,psycho,psycho,0,uniform,0,undefined,0,n,1,0,57,1,1,0,0,0,0,,57,0,57,57,0,57,1,57,57,Mon Dec  4 21:02:01 2023,A template containing a practice and an experimental phase,yes,언어학과심리실험_B조_기말과제용심리실험.osexp,C:\Users\caphi\Downloads,no,mono,no,18,no,black,no,no,768,psycho,54,54,0,C:\Users\caphi\Downloads\quickrun.csv,psycho,Lentiform Loewenfeld,3.3.14,no,해마,natural,same phoneme,0,None,,n,,s,None,n,0.0224999384954571,,636.7318000411615,,1413.344600005075,0.0224999384954571,898.0304000433534,2,psycho,1024,2,48000,-16,experiment,999,odd,해질녘,natural,,110632.58159998804,16121.46080005914,16121.354500064626,,15483.494400046766,9875.868400093168,16120.826700003818,,109922.23170003854,9915.678900084458,111636.41830009874,111636.814000085,11329.61300003808,110127.56980000997,,110737.29389999062,109913.7598000234,Extended template,0,1.2645995011553168,55,yes,1024
0,0,0.0231339197073663,0.0231339197073663,white,yes,psycho,psycho,psycho,0,uniform,0,undefined,0,a,1,0,58,1,1,0,0,0,0,,58,0,58,58,0,58,1,58,58,Mon Dec  4 21:02:01 2023,A template containing a practice and an experimental phase,yes,언어학과심리실험_B조_기말과제용심리실험.osexp,C:\Users\caphi\Downloads,no,mono,no,18,no,black,no,no,768,psycho,55,55,0,C:\Users\caphi\Downloads\quickrun.csv,psycho,Lentiform Loewenfeld,3.3.14,no,프린터,artifactual,similar-environmental,0,None,,n,,s,None,a,0.0309000024572014,,636.7318000411615,,1413.344600005075,0.0309000024572014,1068.3044000761583,2,psycho,1024,2,48000,-16,experiment,999,odd,종이,artifactual,,112454.83540010171,16121.46080005914,16121.354500064626,,15483.494400046766,9875.868400093168,16120.826700003818,,111745.08740007876,9915.678900084458,113628.32550005987,113628.84360004682,11329.61300003808,111950.60229999945,,112558.9675999945,111736.86480009928,Extended template,0,1.2954995036125183,56,yes,1024
0,0,0.0231877100049403,0.0231877100049403,white,yes,psycho,psycho,psycho,0,uniform,0,undefined,0,a,1,0,59,1,1,0,0,0,0,,59,0,59,59,0,59,1,59,59,Mon Dec  4 21:02:01 2023,A template containing a practice and an experimental phase,yes,언어학과심리실험_B조_기말과제용심리실험.osexp,C:\Users\caphi\Downloads,no,mono,no,18,no,black,no,no,768,psycho,56,56,0,C:\Users\caphi\Downloads\quickrun.csv,psycho,Lentiform Loewenfeld,3.3.14,no,로켓,artifactual,same phoneme,0,None,,n,,s,None,a,0.0261999666690826,,636.7318000411615,,1413.344600005075,0.0261999666690826,513.9486999250948,2,psycho,1024,2,48000,-16,experiment,999,odd,로봇,artifactual,,114448.79920000676,16121.46080005914,16121.354500064626,,15483.494400046766,9875.868400093168,16120.826700003818,,113737.70260007586,9915.678900084458,115067.69480009098,115068.2031000033,11329.61300003808,113943.42190003954,,114552.60360008106,113729.15040003136,Extended template,0,1.321699470281601,57,yes,1024
0,0,0.0231344742571999,0.0231344742571999,white,yes,psycho,psycho,psycho,0,uniform,0,undefined,0,n,1,0,60,1,1,0,0,0,0,,60,0,60,60,0,60,1,60,60,Mon Dec  4 21:02:01 2023,A template containing a practice and an experimental phase,yes,언어학과심리실험_B조_기말과제용심리실험.osexp,C:\Users\caphi\Downloads,no,mono,no,18,no,black,no,no,768,psycho,57,57,0,C:\Users\caphi\Downloads\quickrun.csv,psycho,Lentiform Loewenfeld,3.3.14,no,가을,natural,similar-environmental,0,None,,n,,s,None,n,0.0201000366359949,,636.7318000411615,,1413.344600005075,0.0201000366359949,538.1657000398263,2,psycho,1024,2,48000,-16,experiment,999,odd,낙엽,natural,,115899.64020007756,16121.46080005914,16121.354500064626,,15483.494400046766,9875.868400093168,16120.826700003818,,115189.49510005768,9915.678900084458,116542.96890005936,116543.38460008148,11329.61300003808,115395.18820005468,,116003.87400004549,115173.12480008695,Extended template,0,1.341799506917596,58,yes,1024
0,0,0.0231525331925032,0.0231525331925032,white,yes,psycho,psycho,psycho,0,uniform,0,undefined,0,n,1,0,61,1,1,0,0,0,0,,61,0,61,61,0,61,1,61,61,Mon Dec  4 21:02:01 2023,A template containing a practice and an experimental phase,yes,언어학과심리실험_B조_기말과제용심리실험.osexp,C:\Users\caphi\Downloads,no,mono,no,18,no,black,no,no,768,psycho,58,58,0,C:\Users\caphi\Downloads\quickrun.csv,psycho,Lentiform Loewenfeld,3.3.14,no,구두,artifactual,same phoneme,0,None,,n,,s,None,n,0.0241999514400959,,636.7318000411615,,1413.344600005075,0.0241999514400959,592.8677000338212,2,psycho,1024,2,48000,-16,experiment,999,odd,구름,natural,,117361.55570007396,16121.46080005914,16121.354500064626,,15483.494400046766,9875.868400093168,16120.826700003818,,116651.52190008666,9915.678900084458,118059.83390007168,118060.28229999356,11329.61300003808,116857.16440004762,,117465.97150003072,116642.77830009814,Extended template,0,1.3659994583576918,59,yes,1024
0,0,0.0232449907343834,0.0232449907343834,white,yes,psycho,psycho,psycho,0,uniform,0,undefined,0,n,1,0,62,1,1,0,0,0,0,,62,0,62,62,0,62,1,62,62,Mon Dec  4 21:02:01 2023,A template containing a practice and an experimental phase,yes,언어학과심리실험_B조_기말과제용심리실험.osexp,C:\Users\caphi\Downloads,no,mono,no,18,no,black,no,no,768,psycho,59,59,0,C:\Users\caphi\Downloads\quickrun.csv,psycho,Lentiform Loewenfeld,3.3.14,no,박쥐,natural,similar-environmental,0,None,,n,,s,None,n,0.028699985705316,,636.7318000411615,,1413.344600005075,0.028699985705316,741.7273999890313,2,psycho,1024,2,48000,-16,experiment,999,odd,동굴,natural,,118886.00990001578,16121.46080005914,16121.354500064626,,15483.494400046766,9875.868400093168,16120.826700003818,,118170.7885999931,9915.678900084458,119732.39820008166,119732.81350010076,11329.61300003808,118376.0248000035,,118989.25660003442,118162.16110007372,Extended template,0,1.3946994440630078,60,yes,1024
0,0,0.0232573690228774,0.0232573690228774,white,yes,psycho,psycho,psycho,0,uniform,0,undefined,0,n,1,0,63,1,1,0,0,0,0,,63,0,63,63,0,63,1,63,63,Mon Dec  4 21:02:01 2023,A template containing a practice and an experimental phase,yes,언어학과심리실험_B조_기말과제용심리실험.osexp,C:\Users\caphi\Downloads,no,mono,no,18,no,black,no,no,768,psycho,60,60,0,C:\Users\caphi\Downloads\quickrun.csv,psycho,Lentiform Loewenfeld,3.3.14,no,항구,artifactual,similar-environmental,0,None,,n,,s,None,n,0.024000066332519,,636.7318000411615,,1413.344600005075,0.024000066332519,586.7283999687061,2,psycho,1024,2,48000,-16,experiment,999,odd,바다,natural,,120552.83639999108,16121.46080005914,16121.354500064626,,15483.494400046766,9875.868400093168,16120.826700003818,,119841.50260000024,9915.678900084458,121244.86720003188,121245.2964000404,11329.61300003808,120047.54679999314,,120656.93610010204,119833.31540005749,Extended template,0,1.4186995103955269,61,yes,1024
0,0,0.0232257992930469,0.0232257992930469,white,yes,psycho,psycho,psycho,0,uniform,0,undefined,0,n,1,0,64,1,1,0,0,0,0,,64,0,64,64,0,64,1,64,64,Mon Dec  4 21:02:01 2023,A template containing a practice and an experimental phase,yes,언어학과심리실험_B조_기말과제용심리실험.osexp,C:\Users\caphi\Downloads,no,mono,no,18,no,black,no,no,768,psycho,61,61,0,C:\Users\caphi\Downloads\quickrun.csv,psycho,Lentiform Loewenfeld,3.3.14,no,오일,natural,same phoneme,0,None,,n,,s,None,n,0.0213000457733869,,636.7318000411615,,1413.344600005075,0.0213000457733869,467.9740999126807,2,psycho,1024,2,48000,-16,experiment,999,odd,오리,natural,,122063.6019000085,16121.46080005914,16121.354500064626,,15483.494400046766,9875.868400093168,16120.826700003818,,121353.53990003932,9915.678900084458,122636.39730005524,122636.82740007062,11329.61300003808,121559.3399000354,,122167.37490007654,121344.61810009088,Extended template,0,1.4399995561689138,62,yes,1024
0,0,0.0232095175999261,0.0232095175999261,white,yes,psycho,psycho,psycho,0,uniform,0,undefined,0,a,1,0,65,1,1,0,0,0,0,,65,0,65,65,0,65,1,65,65,Mon Dec  4 21:02:01 2023,A template containing a practice and an experimental phase,yes,언어학과심리실험_B조_기말과제용심리실험.osexp,C:\Users\caphi\Downloads,no,mono,no,18,no,black,no,no,768,psycho,62,62,0,C:\Users\caphi\Downloads\quickrun.csv,psycho,Lentiform Loewenfeld,3.3.14,no,학교,artifactual,inclusive,0,None,,n,,s,None,a,0.0222000526264309,,636.7318000411615,,1413.344600005075,0.0222000526264309,629.1753000114113,2,psycho,1024,2,48000,-16,experiment,999,odd,학생,artifactual,,123454.2342000641,16121.46080005914,16121.354500064626,,15483.494400046766,9875.868400093168,16120.826700003818,,122744.1603000043,9915.678900084458,124188.08560003528,124188.53500008116,11329.61300003808,122949.97399998827,,123557.78470006771,122736.2182000652,Extended template,0,1.4621996087953448,63,yes,1024
0,0,0.0231843678193399,0.0231843678193399,white,yes,psycho,psycho,psycho,0,uniform,0,undefined,0,n,1,0,66,1,1,0,0,0,0,,66,0,66,66,0,66,1,66,66,Mon Dec  4 21:02:01 2023,A template containing a practice and an experimental phase,yes,언어학과심리실험_B조_기말과제용심리실험.osexp,C:\Users\caphi\Downloads,no,mono,no,18,no,black,no,no,768,psycho,63,63,0,C:\Users\caphi\Downloads\quickrun.csv,psycho,Lentiform Loewenfeld,3.3.14,no,과일,natural,inclusive,0,None,,n,,s,None,n,0.0215999316424131,,636.7318000411615,,1413.344600005075,0.0215999316424131,417.46220004279166,2,psycho,1024,2,48000,-16,experiment,999,odd,사과,natural,,125010.4461000301,16121.46080005914,16121.354500064626,,15483.494400046766,9875.868400093168,16120.826700003818,,124298.91130002216,9915.678900084458,125532.72720007226,125533.16920006182,11329.61300003808,124505.0648000324,,125114.14760001937,124290.60980002396,Extended template,0,1.483799540437758,64,yes,1024
0,0,0.0231707629819328,0.0231707629819328,white,yes,psycho,psycho,psycho,0,uniform,0,undefined,0,x,1,0,67,1,1,0,0,0,0,,67,0,67,67,0,67,1,67,67,Mon Dec  4 21:02:01 2023,A template containing a practice and an experimental phase,yes,언어학과심리실험_B조_기말과제용심리실험.osexp,C:\Users\caphi\Downloads,no,mono,no,18,no,black,no,no,768,psycho,64,64,0,C:\Users\caphi\Downloads\quickrun.csv,psycho,Lentiform Loewenfeld,3.3.14,no,벨트,artifactual,non-word,0,None,,n,,s,None,x,0.0223000533878803,,636.7318000411615,,1413.344600005075,0.0223000533878803,802.9681000625715,2,psycho,1024,2,48000,-16,experiment,999,odd,진웬,non-word,,126361.13189999014,16121.46080005914,16121.354500064626,,15483.494400046766,9875.868400093168,16120.826700003818,,125652.17110002412,9915.678900084458,127268.7450000085,127269.21699999366,11329.61300003808,125857.81469999348,,126464.69759999307,125643.53040000424,Extended template,0,1.5060995938256383,65,yes,1024
0,0,0.0231515097601169,0.0231515097601169,white,yes,psycho,psycho,psycho,0,uniform,0,undefined,0,n,1,0,68,1,1,0,0,0,0,,68,0,68,68,0,68,1,68,68,Mon Dec  4 21:02:01 2023,A template containing a practice and an experimental phase,yes,언어학과심리실험_B조_기말과제용심리실험.osexp,C:\Users\caphi\Downloads,no,mono,no,18,no,black,no,no,768,psycho,65,65,0,C:\Users\caphi\Downloads\quickrun.csv,psycho,Lentiform Loewenfeld,3.3.14,no,바다,natural,same phoneme,0,None,,n,,s,None,n,0.0219000503420829,,636.7318000411615,,1413.344600005075,0.0219000503420829,788.1741999881342,2,psycho,1024,2,48000,-16,experiment,999,odd,바퀴벌레,natural,,128088.26940006112,16121.46080005914,16121.354500064626,,15483.494400046766,9875.868400093168,16120.826700003818,,127377.05020001158,9915.678900084458,128980.90359999333,128981.34500009472,11329.61300003808,127583.06570001878,,128191.65500008968,127368.99370001628,Extended template,0,1.5279996441677213,66,yes,1024
0,0,0.0231253667804065,0.0231253667804065,white,yes,psycho,psycho,psycho,0,uniform,0,undefined,0,x,1,0,69,1,1,0,0,0,0,,69,0,69,69,0,69,1,69,69,Mon Dec  4 21:02:01 2023,A template containing a practice and an experimental phase,yes,언어학과심리실험_B조_기말과제용심리실험.osexp,C:\Users\caphi\Downloads,no,mono,no,18,no,black,no,no,768,psycho,66,66,0,C:\Users\caphi\Downloads\quickrun.csv,psycho,Lentiform Loewenfeld,3.3.14,no,냉장고,artifactual,non-word,0,None,,n,,s,None,x,0.0213999301195144,,636.7318000411615,,1413.344600005075,0.0213999301195144,753.8785999640822,2,psycho,1024,2,48000,-16,experiment,999,odd,로방삭,non-word,,129801.3489000732,16121.46080005914,16121.354500064626,,15483.494400046766,9875.868400093168,16120.826700003818,,129090.93440009748,9915.678900084458,130660.6652000919,130661.11059999092,11329.61300003808,129296.30650009494,,129905.68800002802,129081.9749000948,Extended template,0,1.5493995742872355,67,yes,1024
0,0,0.0231044062221532,0.0231044062221532,white,yes,psycho,psycho,psycho,0,uniform,0,undefined,0,n,1,0,70,1,1,0,0,0,0,,70,0,70,70,0,70,1,70,70,Mon Dec  4 21:02:01 2023,A template containing a practice and an experimental phase,yes,언어학과심리실험_B조_기말과제용심리실험.osexp,C:\Users\caphi\Downloads,no,mono,no,18,no,black,no,no,768,psycho,67,67,0,C:\Users\caphi\Downloads\quickrun.csv,psycho,Lentiform Loewenfeld,3.3.14,no,풍차,artifactual,no-correlation,0,None,,n,,s,None,n,0.0217000488191843,,636.7318000411615,,1413.344600005075,0.0217000488191843,618.4981999685988,2,psycho,1024,2,48000,-16,experiment,999,odd,흙,natural,,131489.07430004328,16121.46080005914,16121.354500064626,,15483.494400046766,9875.868400093168,16120.826700003818,,130779.2076000478,9915.678900084458,132212.8376000328,132213.2847000612,11329.61300003808,130984.69459998888,,131593.15090009477,130771.34710003156,Extended template,0,1.57109962310642,68,yes,1024
0,0,0.0231449215578428,0.0231449215578428,white,yes,psycho,psycho,psycho,0,uniform,0,undefined,0,a,1,0,71,1,1,0,0,0,0,,71,0,71,71,0,71,1,71,71,Mon Dec  4 21:02:01 2023,A template containing a practice and an experimental phase,yes,언어학과심리실험_B조_기말과제용심리실험.osexp,C:\Users\caphi\Downloads,no,mono,no,18,no,black,no,no,768,psycho,68,68,0,C:\Users\caphi\Downloads\quickrun.csv,psycho,Lentiform Loewenfeld,3.3.14,no,피자,artifactual,similar-environmental,0,None,,n,,s,None,a,0.0258999643847346,,636.7318000411615,,1413.344600005075,0.0258999643847346,564.5198000129312,2,psycho,1024,2,48000,-16,experiment,999,odd,파스타,artifactual,,133030.72979999706,16121.46080005914,16121.354500064626,,15483.494400046766,9875.868400093168,16120.826700003818,,132321.2551000761,9915.678900084458,133700.58370009065,133701.15199999418,11329.61300003808,132526.50750009343,,133134.70890000465,132312.51439999323,Extended template,0,1.596999587491155,69,yes,1024
0,0,0.0231128518602677,0.0231128518602677,white,yes,psycho,psycho,psycho,0,uniform,0,undefined,0,n,1,0,72,1,1,0,0,0,0,,72,0,72,72,0,72,1,72,72,Mon Dec  4 21:02:01 2023,A template containing a practice and an experimental phase,yes,언어학과심리실험_B조_기말과제용심리실험.osexp,C:\Users\caphi\Downloads,no,mono,no,18,no,black,no,no,768,psycho,69,69,0,C:\Users\caphi\Downloads\quickrun.csv,psycho,Lentiform Loewenfeld,3.3.14,no,의자,artifactual,no-correlation,0,None,,n,,s,None,n,0.0209000427275896,,636.7318000411615,,1413.344600005075,0.0209000427275896,823.0372000252828,2,psycho,1024,2,48000,-16,experiment,999,odd,행성,natural,,134524.7462000698,16121.46080005914,16121.354500064626,,15483.494400046766,9875.868400093168,16120.826700003818,,133815.02290000208,9915.678900084458,135452.92479998898,135453.38329998776,11329.61300003808,134020.39610000793,,134628.85600002485,133807.3356000241,Extended template,0,1.6178996302187445,70,yes,1024
0,0,0.0230830923562318,0.0230830923562318,white,yes,psycho,psycho,psycho,0,uniform,0,undefined,0,n,1,0,73,1,1,0,0,0,0,,73,0,73,73,0,73,1,73,73,Mon Dec  4 21:02:01 2023,A template containing a practice and an experimental phase,yes,언어학과심리실험_B조_기말과제용심리실험.osexp,C:\Users\caphi\Downloads,no,mono,no,18,no,black,no,no,768,psycho,70,70,0,C:\Users\caphi\Downloads\quickrun.csv,psycho,Lentiform Loewenfeld,3.3.14,no,전구,artifactual,similar-environmental,0,None,,n,,s,None,n,0.0209999270737171,,636.7318000411615,,1413.344600005075,0.0209999270737171,629.2331999866292,2,psycho,1024,2,48000,-16,experiment,999,odd,빛,natural,,136270.70910006296,16121.46080005914,16121.354500064626,,15483.494400046766,9875.868400093168,16120.826700003818,,135561.8095000973,9915.678900084458,137004.8887000885,137005.36270008888,11329.61300003808,135767.2969000414,,136374.65140002314,135553.53810009547,Extended template,0,1.6388995572924614,71,yes,1024
0,0,0.0231666603617163,0.0231666603617163,white,yes,psycho,psycho,psycho,0,uniform,0,undefined,0,a,1,0,74,1,1,0,0,0,0,,74,0,74,74,0,74,1,74,74,Mon Dec  4 21:02:01 2023,A template containing a practice and an experimental phase,yes,언어학과심리실험_B조_기말과제용심리실험.osexp,C:\Users\caphi\Downloads,no,mono,no,18,no,black,no,no,768,psycho,71,71,0,C:\Users\caphi\Downloads\quickrun.csv,psycho,Lentiform Loewenfeld,3.3.14,no,로봇,artifactual,same phoneme,0,None,,n,,s,None,a,0.0290999887511134,,636.7318000411615,,1413.344600005075,0.0290999887511134,533.5162000264972,2,psycho,1024,2,48000,-16,experiment,999,odd,로켓,artifactual,,137822.33580003958,16121.46080005914,16121.354500064626,,15483.494400046766,9875.868400093168,16120.826700003818,,137112.94190003537,9915.678900084458,138461.24870004132,138461.7274000775,11329.61300003808,137318.08630004525,,137926.5106000239,137104.81250006706,Extended template,0,1.6679995460435748,72,yes,1024
0,0,0.0232479388328039,0.0232479388328039,white,yes,psycho,psycho,psycho,0,uniform,0,undefined,0,n,1,0,75,1,1,0,0,0,0,,75,0,75,75,0,75,1,75,75,Mon Dec  4 21:02:01 2023,A template containing a practice and an experimental phase,yes,언어학과심리실험_B조_기말과제용심리실험.osexp,C:\Users\caphi\Downloads,no,mono,no,18,no,black,no,no,768,psycho,72,72,0,C:\Users\caphi\Downloads\quickrun.csv,psycho,Lentiform Loewenfeld,3.3.14,no,우산,artifactual,similar-environmental,0,None,,n,,s,None,n,0.0290999887511134,,636.7318000411615,,1413.344600005075,0.0290999887511134,705.1169000333175,2,psycho,1024,2,48000,-16,experiment,999,odd,비,natural,,139282.3258000426,16121.46080005914,16121.354500064626,,15483.494400046766,9875.868400093168,16120.826700003818,,138572.02900003176,9915.678900084458,140092.81920001376,140093.3076000074,11329.61300003808,138777.77960000094,,139386.36800006498,138563.38960002176,Extended template,0,1.6970995347946882,73,yes,1024
0,0,0.0232202645919814,0.0232202645919814,white,yes,psycho,psycho,psycho,0,uniform,0,undefined,0,n,1,0,76,1,1,0,0,0,0,,76,0,76,76,0,76,1,76,76,Mon Dec  4 21:02:01 2023,A template containing a practice and an experimental phase,yes,언어학과심리실험_B조_기말과제용심리실험.osexp,C:\Users\caphi\Downloads,no,mono,no,18,no,black,no,no,768,psycho,73,73,0,C:\Users\caphi\Downloads\quickrun.csv,psycho,Lentiform Loewenfeld,3.3.14,no,상새고,non-word,non-word,0,None,,n,,s,None,n,0.0212000450119376,,636.7318000411615,,1413.344600005075,0.0212000450119376,715.6768999993801,2,psycho,1024,2,48000,-16,experiment,999,odd,나뭇잎,natural,,140912.16609999535,16121.46080005914,16121.354500064626,,15483.494400046766,9875.868400093168,16120.826700003818,,140202.1491000196,9915.678900084458,141732.92810004205,141733.43630007005,11329.61300003808,140407.6518000802,,141016.08130009845,140193.8965000445,Extended template,0,1.7182995798066258,74,yes,1024
0,0,0.0234266618887583,0.0234266618887583,white,yes,psycho,psycho,psycho,0,uniform,0,undefined,0,n,1,0,77,1,1,0,0,0,0,,77,0,77,77,0,77,1,77,77,Mon Dec  4 21:02:01 2023,A template containing a practice and an experimental phase,yes,언어학과심리실험_B조_기말과제용심리실험.osexp,C:\Users\caphi\Downloads,no,mono,no,18,no,black,no,no,768,psycho,74,74,0,C:\Users\caphi\Downloads\quickrun.csv,psycho,Lentiform Loewenfeld,3.3.14,no,소방서,artifactual,same phoneme,0,None,,n,,s,None,n,0.0387000618502497,,636.7318000411615,,1413.344600005075,0.0387000618502497,653.3638000255451,2,psycho,1024,2,48000,-16,experiment,999,odd,소나무,natural,,142566.05450005736,16121.46080005914,16121.354500064626,,15483.494400046766,9875.868400093168,16120.826700003818,,141855.9374000179,9915.678900084458,143324.96100000571,143325.48540004063,11329.61300003808,142061.8519000709,,142670.4569000285,141833.2121000858,Extended template,0,1.7569996416568756,75,yes,1024
0,0,0.0234118365609136,0.0234118365609136,white,yes,psycho,psycho,psycho,0,uniform,0,undefined,0,n,0,0,78,1,1,0,0,0,0,,78,0,78,78,0,78,1,78,78,Mon Dec  4 21:02:01 2023,A template containing a practice and an experimental phase,yes,언어학과심리실험_B조_기말과제용심리실험.osexp,C:\Users\caphi\Downloads,no,mono,no,18,no,black,no,no,768,psycho,75,75,0,C:\Users\caphi\Downloads\quickrun.csv,psycho,Lentiform Loewenfeld,3.3.14,no,동굴,natural,similar-environmental,0,None,,n,,s,None,a,0.0222999369725585,,636.7318000411615,,1413.344600005075,0.0222999369725585,570.6767999799922,2,psycho,1024,2,48000,-16,experiment,999,odd,박쥐,natural,,144145.72910009883,16121.46080005914,16121.354500064626,,15483.494400046766,9875.868400093168,16120.826700003818,,143435.84719998762,9915.678900084458,144821.19470008183,144821.68910000473,11329.61300003808,143641.12809998915,,144249.3348000571,143426.58210010268,Extended template,0,1.779299578629434,76,yes,1024
0,0,0.0233973978184066,0.0233973978184066,white,yes,psycho,psycho,psycho,0,uniform,0,undefined,0,n,1,0,79,1,1,0,0,0,0,,79,0,79,79,0,79,1,79,79,Mon Dec  4 21:02:01 2023,A template containing a practice and an experimental phase,yes,언어학과심리실험_B조_기말과제용심리실험.osexp,C:\Users\caphi\Downloads,no,mono,no,18,no,black,no,no,768,psycho,76,76,0,C:\Users\caphi\Downloads\quickrun.csv,psycho,Lentiform Loewenfeld,3.3.14,no,전등,artifactual,no-correlation,0,None,,n,,s,None,n,0.0223000533878803,,636.7318000411615,,1413.344600005075,0.0223000533878803,785.5506000341848,2,psycho,1024,2,48000,-16,experiment,999,odd,소,natural,,145649.89330002572,16121.46080005914,16121.354500064626,,15483.494400046766,9875.868400093168,16120.826700003818,,144939.74840000735,9915.678900084458,146541.3134000264,146541.82990000118,11329.61300003808,145145.232400042,,145754.56020003185,144929.02430007234,Extended template,0,1.8015996320173144,77,yes,1024
0,0,0.0234756362027464,0.0234756362027464,white,yes,psycho,psycho,psycho,0,uniform,0,undefined,0,a,1,0,80,1,1,0,0,0,0,,80,0,80,80,0,80,1,80,80,Mon Dec  4 21:02:01 2023,A template containing a practice and an experimental phase,yes,언어학과심리실험_B조_기말과제용심리실험.osexp,C:\Users\caphi\Downloads,no,mono,no,18,no,black,no,no,768,psycho,77,77,0,C:\Users\caphi\Downloads\quickrun.csv,psycho,Lentiform Loewenfeld,3.3.14,no,바람,natural,similar-environmental,0,None,,n,,s,None,a,0.0294999917969107,,636.7318000411615,,1413.344600005075,0.0294999917969107,675.188299966976,2,psycho,1024,2,48000,-16,experiment,999,odd,창문,artifactual,,147360.84259999916,16121.46080005914,16121.354500064626,,15483.494400046766,9875.868400093168,16120.826700003818,,146650.50360001624,9915.678900084458,148140.99950005766,148141.64710009936,11329.61300003808,146855.80480005592,,147464.60980002303,146641.86520001385,Extended template,0,1.8310996238142248,78,yes,1024
0,0,0.0234392362564236,0.0234392362564236,white,yes,psycho,psycho,psycho,0,uniform,0,undefined,0,n,1,0,81,1,1,0,0,0,0,,81,0,81,81,0,81,1,81,81,Mon Dec  4 21:02:01 2023,A template containing a practice and an experimental phase,yes,언어학과심리실험_B조_기말과제용심리실험.osexp,C:\Users\caphi\Downloads,no,mono,no,18,no,black,no,no,768,psycho,78,78,0,C:\Users\caphi\Downloads\quickrun.csv,psycho,Lentiform Loewenfeld,3.3.14,no,바닥,artifactual,same phoneme,0,None,,n,,s,None,n,0.0206000404432415,,636.7318000411615,,1413.344600005075,0.0206000404432415,572.7723999880254,2,psycho,1024,2,48000,-16,experiment,999,odd,바다,natural,,148959.3409000663,16121.46080005914,16121.354500064626,,15483.494400046766,9875.868400093168,16120.826700003818,,148249.6554000536,9915.678900084458,149637.39000004716,149637.8854000941,11329.61300003808,148455.02710004803,,149063.38730000425,148241.3531000493,Extended template,0,1.8516996642574668,79,yes,1024
0,0,0.02341624640394,0.02341624640394,white,yes,psycho,psycho,psycho,0,uniform,0,undefined,0,a,1,0,82,1,1,0,0,0,0,,82,0,82,82,0,82,1,82,82,Mon Dec  4 21:02:01 2023,A template containing a practice and an experimental phase,yes,언어학과심리실험_B조_기말과제용심리실험.osexp,C:\Users\caphi\Downloads,no,mono,no,18,no,black,no,no,768,psycho,79,79,0,C:\Users\caphi\Downloads\quickrun.csv,psycho,Lentiform Loewenfeld,3.3.14,no,산,natural,similar-environmental,0,None,,n,,s,None,a,0.0216000480577349,,636.7318000411615,,1413.344600005075,0.0216000480577349,874.3421999970451,2,psycho,1024,2,48000,-16,experiment,999,odd,오두막,artifactual,,150466.01730003022,16121.46080005914,16121.354500064626,,15483.494400046766,9875.868400093168,16120.826700003818,,149756.27940008417,9915.678900084458,151445.806200034,151446.3214999996,11329.61300003808,149961.7627999978,,150570.048600086,149738.75200003386,Extended template,0,1.8732997123152015,80,yes,1024
0,0,0.0234061699751534,0.0234061699751534,white,yes,psycho,psycho,psycho,0,uniform,0,undefined,0,a,1,0,83,1,1,0,0,0,0,,83,0,83,83,0,83,1,83,83,Mon Dec  4 21:02:01 2023,A template containing a practice and an experimental phase,yes,언어학과심리실험_B조_기말과제용심리실험.osexp,C:\Users\caphi\Downloads,no,mono,no,18,no,black,no,no,768,psycho,80,80,0,C:\Users\caphi\Downloads\quickrun.csv,psycho,Lentiform Loewenfeld,3.3.14,no,과일,natural,no-correlation,0,None,,n,,s,None,a,0.0226000556722283,,636.7318000411615,,1413.344600005075,0.0226000556722283,540.4566000215709,2,psycho,1024,2,48000,-16,experiment,999,odd,가방,artifactual,,152263.35040002596,16121.46080005914,16121.354500064626,,15483.494400046766,9875.868400093168,16120.826700003818,,151552.46780009475,9915.678900084458,152909.03249999974,152909.55830004532,11329.61300003808,151757.96950003132,,152367.35020007472,151544.4544000784,Extended template,0,1.89589976798743,81,yes,1024
0,0,0.0233902417055172,0.0233902417055172,white,yes,psycho,psycho,psycho,0,uniform,0,undefined,0,a,1,0,84,1,1,0,0,0,0,,84,0,84,84,0,84,1,84,84,Mon Dec  4 21:02:01 2023,A template containing a practice and an experimental phase,yes,언어학과심리실험_B조_기말과제용심리실험.osexp,C:\Users\caphi\Downloads,no,mono,no,18,no,black,no,no,768,psycho,81,81,0,C:\Users\caphi\Downloads\quickrun.csv,psycho,Lentiform Loewenfeld,3.3.14,no,소나무,natural,same phoneme,0,None,,n,,s,None,a,0.0221000518649816,,636.7318000411615,,1413.344600005075,0.0221000518649816,598.2536000665277,2,psycho,1024,2,48000,-16,experiment,999,odd,소방서,artifactual,,153734.00950001087,16121.46080005914,16121.354500064626,,15483.494400046766,9875.868400093168,16120.826700003818,,153024.01460008696,9915.678900084458,154437.51910002902,154438.039700035,11329.61300003808,153229.80870003812,,153837.89690001868,153016.97950006928,Extended template,0,1.917999819852412,82,yes,1024
0,0,0.0233662634504487,0.0233662634504487,white,yes,psycho,psycho,psycho,0,uniform,0,undefined,0,a,1,0,85,1,1,0,0,0,0,,85,0,85,85,0,85,1,85,85,Mon Dec  4 21:02:01 2023,A template containing a practice and an experimental phase,yes,언어학과심리실험_B조_기말과제용심리실험.osexp,C:\Users\caphi\Downloads,no,mono,no,18,no,black,no,no,768,psycho,82,82,0,C:\Users\caphi\Downloads\quickrun.csv,psycho,Lentiform Loewenfeld,3.3.14,no,기계,artifactual,inclusive,0,None,,n,,s,None,a,0.0214000465348362,,636.7318000411615,,1413.344600005075,0.0214000465348362,1145.422999979928,2,psycho,1024,2,48000,-16,experiment,999,odd,컴퓨터,artifactual,,155250.78880006913,16121.46080005914,16121.354500064626,,15483.494400046766,9875.868400093168,16120.826700003818,,154540.75730009936,9915.678900084458,156502.1859999979,156502.72720004432,11329.61300003808,154746.1670000339,,155355.01320008188,154532.25789999124,Extended template,0,1.939399866387248,83,yes,1024
0,0,0.0234071409241074,0.0234071409241074,white,yes,psycho,psycho,psycho,0,uniform,0,undefined,0,a,1,0,86,1,1,0,0,0,0,,86,0,86,86,0,86,1,86,86,Mon Dec  4 21:02:01 2023,A template containing a practice and an experimental phase,yes,언어학과심리실험_B조_기말과제용심리실험.osexp,C:\Users\caphi\Downloads,no,mono,no,18,no,black,no,no,768,psycho,83,83,0,C:\Users\caphi\Downloads\quickrun.csv,psycho,Lentiform Loewenfeld,3.3.14,no,안음풍,non-word,non-word,0,None,,n,,s,None,a,0.0267999712377786,,636.7318000411615,,1413.344600005075,0.0267999712377786,648.0986999813467,2,psycho,1024,2,48000,-16,experiment,999,odd,의자,artifactual,,157324.70320002176,16121.46080005914,16121.354500064626,,15483.494400046766,9875.868400093168,16120.826700003818,,156612.1548000956,9915.678900084458,158078.52720003575,158079.0753000183,11329.61300003808,156817.80379998963,,157429.00670005474,156602.7612000471,Extended template,0,1.9661998376250267,84,yes,1024
0,0,0.0234270564225666,0.0234270564225666,white,yes,psycho,psycho,psycho,0,uniform,0,undefined,0,a,1,0,87,1,1,0,0,0,0,,87,0,87,87,0,87,1,87,87,Mon Dec  4 21:02:01 2023,A template containing a practice and an experimental phase,yes,언어학과심리실험_B조_기말과제용심리실험.osexp,C:\Users\caphi\Downloads,no,mono,no,18,no,black,no,no,768,psycho,84,84,0,C:\Users\caphi\Downloads\quickrun.csv,psycho,Lentiform Loewenfeld,3.3.14,no,계곡,natural,no-correlation,0,None,,n,,s,None,a,0.0250999582931399,,636.7318000411615,,1413.344600005075,0.0250999582931399,706.2059999443591,2,psycho,1024,2,48000,-16,experiment,999,odd,화장실,artifactual,,158898.55010004248,16121.46080005914,16121.354500064626,,15483.494400046766,9875.868400093168,16120.826700003818,,158188.24970000423,9915.678900084458,159709.69300006982,159710.23389999755,11329.61300003808,158393.8904000679,,159002.2300001001,158180.3448999999,Extended template,0,1.9912997959181664,85,yes,1024
0,0,0.0234011609410477,0.0234011609410477,white,yes,psycho,psycho,psycho,0,uniform,0,undefined,0,a,1,0,88,1,1,0,0,0,0,,88,0,88,88,0,88,1,88,88,Mon Dec  4 21:02:01 2023,A template containing a practice and an experimental phase,yes,언어학과심리실험_B조_기말과제용심리실험.osexp,C:\Users\caphi\Downloads,no,mono,no,18,no,black,no,no,768,psycho,85,85,0,C:\Users\caphi\Downloads\quickrun.csv,psycho,Lentiform Loewenfeld,3.3.14,no,건물,artifactual,inclusive,0,None,,n,,s,None,a,0.0212000450119376,,636.7318000411615,,1413.344600005075,0.0212000450119376,515.5166001059115,2,psycho,1024,2,48000,-16,experiment,999,odd,병원,artifactual,,160529.4045000337,16121.46080005914,16121.354500064626,,15483.494400046766,9875.868400093168,16120.826700003818,,159818.29349999316,9915.678900084458,161149.9128000578,161150.4584000213,11329.61300003808,160024.07310006674,,160633.10179999098,159810.4532000143,Extended template,0,2.0124998409301043,86,yes,1024
0,0,0.0233701135877562,0.0233701135877562,white,yes,psycho,psycho,psycho,0,uniform,0,undefined,0,n,1,0,89,1,1,0,0,0,0,,89,0,89,89,0,89,1,89,89,Mon Dec  4 21:02:01 2023,A template containing a practice and an experimental phase,yes,언어학과심리실험_B조_기말과제용심리실험.osexp,C:\Users\caphi\Downloads,no,mono,no,18,no,black,no,no,768,psycho,86,86,0,C:\Users\caphi\Downloads\quickrun.csv,psycho,Lentiform Loewenfeld,3.3.14,no,등산로,artifactual,similar-environmental,0,None,,n,,s,None,n,0.0207000412046909,,636.7318000411615,,1413.344600005075,0.0207000412046909,502.6670000515878,2,psycho,1024,2,48000,-16,experiment,999,odd,산,natural,,161969.0985000925,16121.46080005914,16121.354500064626,,15483.494400046766,9875.868400093168,16120.826700003818,,161259.38719999976,9915.678900084458,162581.77170006093,162582.31410000008,11329.61300003808,161464.86900001764,,162077.84949999768,161251.5301000094,Extended template,0,2.033199882134795,87,yes,1024
0,0,0.023385225424797,0.023385225424797,white,yes,psycho,psycho,psycho,0,uniform,0,undefined,0,a,1,0,90,1,1,0,0,0,0,,90,0,90,90,0,90,1,90,90,Mon Dec  4 21:02:01 2023,A template containing a practice and an experimental phase,yes,언어학과심리실험_B조_기말과제용심리실험.osexp,C:\Users\caphi\Downloads,no,mono,no,18,no,black,no,no,768,psycho,87,87,0,C:\Users\caphi\Downloads\quickrun.csv,psycho,Lentiform Loewenfeld,3.3.14,no,학적,artifactual,same phoneme,0,None,,n,,s,None,a,0.0246999552473425,,636.7318000411615,,1413.344600005075,0.0246999552473425,963.4865000844002,2,psycho,1024,2,48000,-16,experiment,999,odd,학술,artifactual,,163401.2814000016,16121.46080005914,16121.354500064626,,15483.494400046766,9875.868400093168,16120.826700003818,,162690.88070001453,9915.678900084458,164470.10310005862,164470.67770001013,11329.61300003808,162896.62950008642,,163505.16770000104,162682.25750001147,Extended template,0,2.0578998373821378,88,yes,1024
0,0,0.0233595492318272,0.0233595492318272,white,yes,psycho,psycho,psycho,0,uniform,0,undefined,0,a,0,0,91,1,1,0,0,0,0,,91,0,91,91,0,91,1,91,91,Mon Dec  4 21:02:01 2023,A template containing a practice and an experimental phase,yes,언어학과심리실험_B조_기말과제용심리실험.osexp,C:\Users\caphi\Downloads,no,mono,no,18,no,black,no,no,768,psycho,88,88,0,C:\Users\caphi\Downloads\quickrun.csv,psycho,Lentiform Loewenfeld,3.3.14,no,구름,natural,same phoneme,0,None,,n,,s,None,n,0.0211000442504882,,636.7318000411615,,1413.344600005075,0.0211000442504882,612.0595999527723,2,psycho,1024,2,48000,-16,experiment,999,odd,구두,artifactual,,165288.69140008464,16121.46080005914,16121.354500064626,,15483.494400046766,9875.868400093168,16120.826700003818,,164578.41930002905,9915.678900084458,166005.95140003134,166006.51930004824,11329.61300003808,164784.30580010172,,165392.61960005388,164570.57229999918,Extended template,0,2.078999881632626,89,yes,1024
0,0,0.0233711105667882,0.0233711105667882,white,yes,psycho,psycho,psycho,0,uniform,0,undefined,0,n,1,0,92,1,1,0,0,0,0,,92,0,92,92,0,92,1,92,92,Mon Dec  4 21:02:01 2023,A template containing a practice and an experimental phase,yes,언어학과심리실험_B조_기말과제용심리실험.osexp,C:\Users\caphi\Downloads,no,mono,no,18,no,black,no,no,768,psycho,89,89,0,C:\Users\caphi\Downloads\quickrun.csv,psycho,Lentiform Loewenfeld,3.3.14,no,패딩,artifactual,similar-environmental,0,None,,n,,s,None,n,0.0244000693783164,,636.7318000411615,,1413.344600005075,0.0244000693783164,747.1744999056682,2,psycho,1024,2,48000,-16,experiment,999,odd,겨울,natural,,166833.15640001092,16121.46080005914,16121.354500064626,,15483.494400046766,9875.868400093168,16120.826700003818,,166123.4870000044,9915.678900084458,167685.90929999482,167686.5021000849,11329.61300003808,166329.2308000382,,166937.5898001017,166114.49430009816,Extended template,0,2.1033999510109425,90,yes,1024
0,0,0.023349450522481,0.023349450522481,white,yes,psycho,psycho,psycho,0,uniform,0,undefined,0,n,1,0,93,1,1,0,0,0,0,,93,0,93,93,0,93,1,93,93,Mon Dec  4 21:02:01 2023,A template containing a practice and an experimental phase,yes,언어학과심리실험_B조_기말과제용심리실험.osexp,C:\Users\caphi\Downloads,no,mono,no,18,no,black,no,no,768,psycho,90,90,0,C:\Users\caphi\Downloads\quickrun.csv,psycho,Lentiform Loewenfeld,3.3.14,no,얼음,natural,no-correlation,0,None,,n,,s,None,n,0.0214000465348362,,636.7318000411615,,1413.344600005075,0.0214000465348362,562.667699996382,2,psycho,1024,2,48000,-16,experiment,999,odd,돌,natural,,168506.32610009052,16121.46080005914,16121.354500064626,,15483.494400046766,9875.868400093168,16120.826700003818,,167796.06720001902,9915.678900084458,169173.73869998846,169174.3283000542,11329.61300003808,168001.63610000163,,168609.81340007856,167787.67580003478,Extended template,0,2.1247999975457788,91,yes,1024
0,0,0.0234478262111382,0.0234478262111382,white,yes,psycho,psycho,psycho,0,uniform,0,undefined,0,a,1,0,94,1,1,0,0,0,0,,94,0,94,94,0,94,1,94,94,Mon Dec  4 21:02:01 2023,A template containing a practice and an experimental phase,yes,언어학과심리실험_B조_기말과제용심리실험.osexp,C:\Users\caphi\Downloads,no,mono,no,18,no,black,no,no,768,psycho,91,91,0,C:\Users\caphi\Downloads\quickrun.csv,psycho,Lentiform Loewenfeld,3.3.14,no,꽃,natural,no-correlation,0,None,,n,,s,None,a,0.0324000138789415,,636.7318000411615,,1413.344600005075,0.0324000138789415,1629.0524000069126,2,psycho,1024,2,48000,-16,experiment,999,odd,풍차,artifactual,,169999.88010001834,16121.46080005914,16121.354500064626,,15483.494400046766,9875.868400093168,16120.826700003818,,169289.6899000043,9915.678900084458,171733.9023000095,171734.4979000045,11329.61300003808,169495.38139998913,,170103.5762000829,169270.12160001323,Extended template,0,2.1572000114247203,92,yes,1024
0,0,0.0234301069310756,0.0234301069310756,white,yes,psycho,psycho,psycho,0,uniform,0,undefined,0,x,1,0,95,1,1,0,0,0,0,,95,0,95,95,0,95,1,95,95,Mon Dec  4 21:02:01 2023,A template containing a practice and an experimental phase,yes,언어학과심리실험_B조_기말과제용심리실험.osexp,C:\Users\caphi\Downloads,no,mono,no,18,no,black,no,no,768,psycho,92,92,0,C:\Users\caphi\Downloads\quickrun.csv,psycho,Lentiform Loewenfeld,3.3.14,no,시계,artifactual,non-word,0,None,,n,,s,None,x,0.0217999331653118,,636.7318000411615,,1413.344600005075,0.0217999331653118,1035.1921999827027,2,psycho,1024,2,48000,-16,experiment,999,odd,책솜,non-word,,172553.6683000391,16121.46080005914,16121.354500064626,,15483.494400046766,9875.868400093168,16120.826700003818,,171843.61640003044,9915.678900084458,173693.61330009997,173694.20999998692,11329.61300003808,172049.58580003586,,172657.20580006018,171834.85720003955,Extended template,0,2.178999944590032,93,yes,1024
0,0,0.0233989360028917,0.0233989360028917,white,yes,psycho,psycho,psycho,0,uniform,0,undefined,0,n,1,0,96,1,1,0,0,0,0,,96,0,96,96,0,96,1,96,96,Mon Dec  4 21:02:01 2023,A template containing a practice and an experimental phase,yes,언어학과심리실험_B조_기말과제용심리실험.osexp,C:\Users\caphi\Downloads,no,mono,no,18,no,black,no,no,768,psycho,93,93,0,C:\Users\caphi\Downloads\quickrun.csv,psycho,Lentiform Loewenfeld,3.3.14,no,불,natural,no-correlation,0,None,,n,,s,None,n,0.0205000396817922,,636.7318000411615,,1413.344600005075,0.0205000396817922,549.9787000007927,2,psycho,1024,2,48000,-16,experiment,999,odd,바위,natural,,174510.73580002412,16121.46080005914,16121.354500064626,,15483.494400046766,9875.868400093168,16120.826700003818,,173800.66860001534,9915.678900084458,175165.3960000258,175165.99460004363,11329.61300003808,174006.31740002427,,174614.2366999993,173792.41029999685,Extended template,0,2.1994999842718244,94,yes,1024
0,0,0.0233831570336693,0.0233831570336693,white,yes,psycho,psycho,psycho,0,uniform,0,undefined,0,n,1,0,97,1,1,0,0,0,0,,97,0,97,97,0,97,1,97,97,Mon Dec  4 21:02:01 2023,A template containing a practice and an experimental phase,yes,언어학과심리실험_B조_기말과제용심리실험.osexp,C:\Users\caphi\Downloads,no,mono,no,18,no,black,no,no,768,psycho,94,94,0,C:\Users\caphi\Downloads\quickrun.csv,psycho,Lentiform Loewenfeld,3.3.14,no,숲,natural,inclusive,0,None,,n,,s,None,n,0.0218999339267611,,636.7318000411615,,1413.344600005075,0.0218999339267611,713.0388000514358,2,psycho,1024,2,48000,-16,experiment,999,odd,나무,natural,,175995.5921000801,16121.46080005914,16121.354500064626,,15483.494400046766,9875.868400093168,16120.826700003818,,175285.8644000953,9915.678900084458,176814.38910006543,176814.98980009928,11329.61300003808,175491.49949999992,,176099.62740004994,175277.0574000897,Extended template,0,2.221399918198585,95,yes,1024
0,0,0.0233635400945786,0.0233635400945786,white,yes,psycho,psycho,psycho,0,uniform,0,undefined,0,a,1,0,98,1,1,0,0,0,0,,98,0,98,98,0,98,1,98,98,Mon Dec  4 21:02:01 2023,A template containing a practice and an experimental phase,yes,언어학과심리실험_B조_기말과제용심리실험.osexp,C:\Users\caphi\Downloads,no,mono,no,18,no,black,no,no,768,psycho,95,95,0,C:\Users\caphi\Downloads\quickrun.csv,psycho,Lentiform Loewenfeld,3.3.14,no,악어,natural,same phoneme,0,None,,n,,s,None,a,0.0214999308809638,,636.7318000411615,,1413.344600005075,0.0214999308809638,691.5338999824598,2,psycho,1024,2,48000,-16,experiment,999,odd,악기,artifactual,,177633.62990005407,16121.46080005914,16121.354500064626,,15483.494400046766,9875.868400093168,16120.826700003818,,176922.677100054,9915.678900084458,178430.4293000605,178431.02470005397,11329.61300003808,177128.3645000076,,177737.41180007346,176914.32300000452,Extended template,0,2.2428998490795493,96,yes,1024
0,0,0.0233391741501916,0.0233391741501916,white,yes,psycho,psycho,psycho,0,uniform,0,undefined,0,x,1,0,99,1,1,0,0,0,0,,99,0,99,99,0,99,1,99,99,Mon Dec  4 21:02:01 2023,A template containing a practice and an experimental phase,yes,언어학과심리실험_B조_기말과제용심리실험.osexp,C:\Users\caphi\Downloads,no,mono,no,18,no,black,no,no,768,psycho,96,96,0,C:\Users\caphi\Downloads\quickrun.csv,psycho,Lentiform Loewenfeld,3.3.14,no,사자,natural,non-word,0,None,,n,,s,None,x,0.0210000434890389,,636.7318000411615,,1413.344600005075,0.0210000434890389,746.5954000363126,2,psycho,1024,2,48000,-16,experiment,999,odd,러스바이,non-word,,179249.09789999947,16121.46080005914,16121.354500064626,,15483.494400046766,9875.868400093168,16120.826700003818,,178538.96590007935,9915.678900084458,180101.53780004475,180102.14249999262,11329.61300003808,178744.45620004553,,179353.78660005517,178530.62219999265,Extended template,0,2.2638998925685883,97,yes,1024
0,0,0.0233234676095295,0.0233234676095295,white,yes,psycho,psycho,psycho,0,uniform,0,undefined,0,a,1,0,100,1,1,0,0,0,0,,100,0,100,100,0,100,1,100,100,Mon Dec  4 21:02:01 2023,A template containing a practice and an experimental phase,yes,언어학과심리실험_B조_기말과제용심리실험.osexp,C:\Users\caphi\Downloads,no,mono,no,18,no,black,no,no,768,psycho,97,97,0,C:\Users\caphi\Downloads\quickrun.csv,psycho,Lentiform Loewenfeld,3.3.14,no,화분,artifactual,no-correlation,0,None,,n,,s,None,a,0.0217999331653118,,636.7318000411615,,1413.344600005075,0.0217999331653118,760.3617999702692,2,psycho,1024,2,48000,-16,experiment,999,odd,신발,artifactual,,180916.991300066,16121.46080005914,16121.354500064626,,15483.494400046766,9875.868400093168,16120.826700003818,,180206.18720003404,9915.678900084458,181782.5436000712,181783.14120008145,11329.61300003808,180412.46660007164,,181020.81600006204,180197.7113999892,Extended template,0,2.2856998257339,98,yes,1024
0,0,0.0233020188964226,0.0233020188964226,white,yes,psycho,psycho,psycho,0,uniform,0,undefined,0,n,1,0,101,1,1,0,0,0,0,,101,0,101,101,0,101,1,101,101,Mon Dec  4 21:02:01 2023,A template containing a practice and an experimental phase,yes,언어학과심리실험_B조_기말과제용심리실험.osexp,C:\Users\caphi\Downloads,no,mono,no,18,no,black,no,no,768,psycho,98,98,0,C:\Users\caphi\Downloads\quickrun.csv,psycho,Lentiform Loewenfeld,3.3.14,no,다리,artifactual,similar-environmental,0,None,,n,,s,None,n,0.0212000450119376,,636.7318000411615,,1413.344600005075,0.0212000450119376,572.5321000209078,2,psycho,1024,2,48000,-16,experiment,999,odd,강,natural,,182600.2325000009,16121.46080005914,16121.354500064626,,15483.494400046766,9875.868400093168,16120.826700003818,,181890.4988000868,9915.678900084458,183278.0137000373,183278.6197999958,11329.61300003808,182096.02090006229,,182704.183200025,181882.72940006573,Extended template,0,2.3068998707458377,99,yes,1024
0,0,0.023277997970581,0.023277997970581,white,yes,psycho,psycho,psycho,0,uniform,0,undefined,0,n,1,0,102,1,1,0,0,0,0,,102,0,102,102,0,102,1,102,102,Mon Dec  4 21:02:01 2023,A template containing a practice and an experimental phase,yes,언어학과심리실험_B조_기말과제용심리실험.osexp,C:\Users\caphi\Downloads,no,mono,no,18,no,black,no,no,768,psycho,99,99,0,C:\Users\caphi\Downloads\quickrun.csv,psycho,Lentiform Loewenfeld,3.3.14,no,꽃,natural,inclusive,0,None,,n,,s,None,n,0.0208999263122677,,636.7318000411615,,1413.344600005075,0.0208999263122677,567.6686000078917,2,psycho,1024,2,48000,-16,experiment,999,odd,해바라기,natural,,184117.3849999905,16121.46080005914,16121.354500064626,,15483.494400046766,9875.868400093168,16120.826700003818,,183407.5136000756,9915.678900084458,184789.8964000633,184790.52740009504,11329.61300003808,183613.06510004212,,184220.9117000457,183390.27140010148,Extended template,0,2.327799797058105,100,yes,1024
0,0,0.0232653438786763,0.0232653438786763,white,yes,psycho,psycho,psycho,0,uniform,0,undefined,0,a,1,0,103,1,1,0,0,0,0,,103,0,103,103,0,103,1,103,103,Mon Dec  4 21:02:01 2023,A template containing a practice and an experimental phase,yes,언어학과심리실험_B조_기말과제용심리실험.osexp,C:\Users\caphi\Downloads,no,mono,no,18,no,black,no,no,768,psycho,100,100,0,C:\Users\caphi\Downloads\quickrun.csv,psycho,Lentiform Loewenfeld,3.3.14,no,전기,natural,similar-environmental,0,None,,n,,s,None,a,0.0219999346882104,,636.7318000411615,,1413.344600005075,0.0219999346882104,789.1498999670148,2,psycho,1024,2,48000,-16,experiment,999,odd,전선,artifactual,,185607.67920000944,16121.46080005914,16121.354500064626,,15483.494400046766,9875.868400093168,16120.826700003818,,184898.6746000592,9915.678900084458,186502.29060009588,186502.95330001973,11329.61300003808,185104.06300006437,,185711.93690004293,184890.19380009267,Extended template,0,2.349799731746316,101,yes,1024
0,0,0.0232490174490593,0.0232490174490593,white,yes,psycho,psycho,psycho,0,uniform,0,undefined,0,a,1,0,104,1,1,0,0,0,0,,104,0,104,104,0,104,1,104,104,Mon Dec  4 21:02:01 2023,A template containing a practice and an experimental phase,yes,언어학과심리실험_B조_기말과제용심리실험.osexp,C:\Users\caphi\Downloads,no,mono,no,18,no,black,no,no,768,psycho,101,101,0,C:\Users\caphi\Downloads\quickrun.csv,psycho,Lentiform Loewenfeld,3.3.14,no,호수,natural,no-correlation,0,None,,n,,s,None,a,0.0216000480577349,,636.7318000411615,,1413.344600005075,0.0216000480577349,597.3344999365509,2,psycho,1024,2,48000,-16,experiment,999,odd,화장실,artifactual,,187319.7035000194,16121.46080005914,16121.354500064626,,15483.494400046766,9875.868400093168,16120.826700003818,,186609.86339999363,9915.678900084458,188021.99050004128,188022.61850005016,11329.61300003808,186815.36900007632,,187423.289700062,186601.7751999898,Extended template,0,2.371399779804051,102,yes,1024
0,0,0.0232368915622095,0.0232368915622095,white,yes,psycho,psycho,psycho,0,uniform,0,undefined,0,n,1,0,105,1,1,0,0,0,0,,105,0,105,105,0,105,1,105,105,Mon Dec  4 21:02:01 2023,A template containing a practice and an experimental phase,yes,언어학과심리실험_B조_기말과제용심리실험.osexp,C:\Users\caphi\Downloads,no,mono,no,18,no,black,no,no,768,psycho,102,102,0,C:\Users\caphi\Downloads\quickrun.csv,psycho,Lentiform Loewenfeld,3.3.14,no,곡물,natural,inclusive,0,None,,n,,s,None,n,0.0220000511035323,,636.7318000411615,,1413.344600005075,0.0220000511035323,589.893100084737,2,psycho,1024,2,48000,-16,experiment,999,odd,밀,natural,,188840.38790001068,16121.46080005914,16121.354500064626,,15483.494400046766,9875.868400093168,16120.826700003818,,188130.27720001992,9915.678900084458,189534.84440001196,189535.5303999968,11329.61300003808,188336.01750002708,,188943.5838999925,188121.6125000501,Extended template,0,2.3933998309075832,103,yes,1024
