acc,accuracy,average_response_time,avg_rt,background,bidi,canvas_backend,clock_backend,color_backend,compensation,coordinates,correct,correct_instructions,correct_keyboard_response,correct_response,correct_target,count_about_this_template,count_blank,count_block_loop,count_block_sequence,count_end_of_experiment,count_end_of_practice,count_experiment,count_experimental_loop,count_feedback,count_fixation,count_instructions,count_keyboard_response,count_logger,count_practice_loop,count_prime,count_reset_feedback,count_target,count_trial_sequence,datetime,description,disable_garbage_collection,experiment_file,experiment_path,font_bold,font_family,font_italic,font_size,font_underline,foreground,form_clicks,fullscreen,height,keyboard_backend,live_row,live_row_block_loop,live_row_practice_loop,logfile,mouse_backend,opensesame_codename,opensesame_version,practice,prime,prime_condition,relation,repeat_cycle,response,response_end_of_experiment,response_end_of_practice,response_feedback,response_instructions,response_keyboard_response,response_target,response_time,response_time_end_of_experiment,response_time_end_of_practice,response_time_feedback,response_time_instructions,response_time_keyboard_response,response_time_target,round_decimals,sampler_backend,sound_buf_size,sound_channels,sound_freq,sound_sample_size,start,subject_nr,subject_parity,target,target_condition,time_about_this_template,time_blank,time_block_loop,time_block_sequence,time_end_of_experiment,time_end_of_practice,time_experiment,time_experimental_loop,time_feedback,time_fixation,time_instructions,time_keyboard_response,time_logger,time_practice_loop,time_prime,time_reset_feedback,time_target,time_trial_sequence,title,total_correct,total_response_time,total_responses,uniform_coordinates,width
0,0,0.0219000503420829,0.0219000503420829,white,yes,psycho,psycho,psycho,0,uniform,0,undefined,0,n,1,0,0,0,0,0,0,0,0,,0,0,0,0,0,0,0,0,0,Mon Dec  4 22:15:17 2023,A template containing a practice and an experimental phase,yes,언어학과심리실험_B조_기말과제용심리실험.osexp,C:\Users\caphi\Downloads,no,mono,no,18,no,black,no,no,768,psycho,0,0,0,C:\Users\caphi\Downloads\quickrun.csv,psycho,Lentiform Loewenfeld,3.3.14,yes,전구,artifactual,similar-environmental,0,None,,,,d,None,n,0.0219000503420829,,,,10437.6837000018,0.0219000503420829,1190.605300012976,2,psycho,1024,2,48000,-16,experiment,999,odd,빛,natural,,16827.597699943,16051.916799973696,16051.8101999769,,,5587.741099996492,,,16117.983300006015,5612.99880000297,18123.15749994013,18123.271199990995,16051.247800001876,16323.963699978776,,16931.738800019957,16109.85000000801,Extended template,0,0.0219000503420829,1,yes,1024
0,0,0.0222499947994947,0.0222499947994947,white,yes,psycho,psycho,psycho,0,uniform,0,undefined,0,n,1,0,1,0,0,0,0,0,0,,1,0,1,1,0,1,0,1,1,Mon Dec  4 22:15:17 2023,A template containing a practice and an experimental phase,yes,언어학과심리실험_B조_기말과제용심리실험.osexp,C:\Users\caphi\Downloads,no,mono,no,18,no,black,no,no,768,psycho,1,1,0,C:\Users\caphi\Downloads\quickrun.csv,psycho,Lentiform Loewenfeld,3.3.14,yes,스노우보드,artifactual,no-correlation,0,None,,,,d,None,n,0.0225999392569065,,,,10437.6837000018,0.0225999392569065,153.0784999486059,2,psycho,1024,2,48000,-16,experiment,999,odd,소나무,natural,,18981.818599975668,16051.916799973696,16051.8101999769,,,5587.741099996492,,,18268.4710000176,5612.99880000297,19251.68670003768,19251.80930003989,16051.247800001876,18476.34609998204,,19097.791700041853,18263.138300040737,Extended template,0,0.0444999895989894,2,yes,1024
0,0,0.0218000107755263,0.0218000107755263,white,yes,psycho,psycho,psycho,0,uniform,0,undefined,0,a,0,0,2,0,0,0,0,0,0,,2,0,2,2,0,2,0,2,2,Mon Dec  4 22:15:17 2023,A template containing a practice and an experimental phase,yes,언어학과심리실험_B조_기말과제용심리실험.osexp,C:\Users\caphi\Downloads,no,mono,no,18,no,black,no,no,768,psycho,2,2,0,C:\Users\caphi\Downloads\quickrun.csv,psycho,Lentiform Loewenfeld,3.3.14,yes,호수,natural,no-correlation,0,None,,,,d,None,n,0.0209000427275896,,,,10437.6837000018,0.0209000427275896,50.59390002861619,2,psycho,1024,2,48000,-16,experiment,999,odd,대학교,artifactual,,20079.445000039414,16051.916799973696,16051.8101999769,,,5587.741099996492,,,19362.978299963288,5612.99880000297,20235.200199997053,20235.31689995434,16051.247800001876,19575.653600040823,,20183.93970001489,19354.857099941,Extended template,0,0.0654000323265791,3,yes,1024
0,0,0.0216000480577349,0.0216000480577349,white,yes,psycho,psycho,psycho,0,uniform,0,undefined,0,n,1,0,3,1,1,0,0,0,0,,3,0,3,3,0,3,1,3,3,Mon Dec  4 22:15:17 2023,A template containing a practice and an experimental phase,yes,언어학과심리실험_B조_기말과제용심리실험.osexp,C:\Users\caphi\Downloads,no,mono,no,18,no,black,no,no,768,psycho,0,0,0,C:\Users\caphi\Downloads\quickrun.csv,psycho,Lentiform Loewenfeld,3.3.14,no,호수,natural,no-correlation,0,None,,a,,d,None,n,0.0216000480577349,,414.1253000125289,,10437.6837000018,0.0216000480577349,670.6649999832734,2,psycho,1024,2,48000,-16,experiment,999,odd,소나무,natural,,21531.72299999278,20779.88489996642,20779.77789996657,,20364.446999970824,5587.741099996492,20779.229799984023,,20822.24240002688,5612.99880000297,22307.33290000353,22307.463599951006,16051.247800001876,21027.63959998265,,21635.92150004115,20816.57809996977,Extended template,0,0.0216000480577349,1,yes,1024
0,0,0.0217500491999089,0.0217500491999089,white,yes,psycho,psycho,psycho,0,uniform,0,undefined,0,n,1,0,4,1,1,0,0,0,0,,4,0,4,4,0,4,1,4,4,Mon Dec  4 22:15:17 2023,A template containing a practice and an experimental phase,yes,언어학과심리실험_B조_기말과제용심리실험.osexp,C:\Users\caphi\Downloads,no,mono,no,18,no,black,no,no,768,psycho,1,1,0,C:\Users\caphi\Downloads\quickrun.csv,psycho,Lentiform Loewenfeld,3.3.14,no,불,natural,no-correlation,0,None,,a,,d,None,n,0.0219000503420829,,414.1253000125289,,10437.6837000018,0.0219000503420829,525.662999949418,2,psycho,1024,2,48000,-16,experiment,999,odd,물고기,natural,,23133.574999985285,20779.88489996642,20779.77789996657,,20364.446999970824,5587.741099996492,20779.229799984023,,22417.978400015272,5612.99880000297,23764.22669994645,23764.35269997455,16051.247800001876,22623.678499949165,,23237.813499988988,22409.708800027147,Extended template,0,0.0435000983998179,2,yes,1024
0,0,0.0214667137091358,0.0214667137091358,white,yes,psycho,psycho,psycho,0,uniform,0,undefined,0,n,1,0,5,1,1,0,0,0,0,,5,0,5,5,0,5,1,5,5,Mon Dec  4 22:15:17 2023,A template containing a practice and an experimental phase,yes,언어학과심리실험_B조_기말과제용심리실험.osexp,C:\Users\caphi\Downloads,no,mono,no,18,no,black,no,no,768,psycho,2,2,0,C:\Users\caphi\Downloads\quickrun.csv,psycho,Lentiform Loewenfeld,3.3.14,no,구두,artifactual,same phoneme,0,None,,a,,d,None,n,0.0209000427275896,,414.1253000125289,,10437.6837000018,0.0209000427275896,490.05669995676726,2,psycho,1024,2,48000,-16,experiment,999,odd,구름,natural,,24584.66679998673,20779.88489996642,20779.77789996657,,20364.446999970824,5587.741099996492,20779.229799984023,,23874.13979996927,5612.99880000297,25179.26839995198,25179.39559998922,16051.247800001876,24079.90150002297,,24688.46690002829,23865.90990005061,Extended template,0,0.0644001411274075,3,yes,1024
0,0,0.0215750187635421,0.0215750187635421,white,yes,psycho,psycho,psycho,0,uniform,0,undefined,0,n,1,0,6,1,1,0,0,0,0,,6,0,6,6,0,6,1,6,6,Mon Dec  4 22:15:17 2023,A template containing a practice and an experimental phase,yes,언어학과심리실험_B조_기말과제용심리실험.osexp,C:\Users\caphi\Downloads,no,mono,no,18,no,black,no,no,768,psycho,3,3,0,C:\Users\caphi\Downloads\quickrun.csv,psycho,Lentiform Loewenfeld,3.3.14,no,가을,natural,similar-environmental,0,None,,a,,d,None,n,0.0218999339267611,,414.1253000125289,,10437.6837000018,0.0218999339267611,492.2487000003457,2,psycho,1024,2,48000,-16,experiment,999,odd,낙엽,natural,,26005.895199952647,20779.88489996642,20779.77789996657,,20364.446999970824,5587.741099996492,20779.229799984023,,25295.957800000902,5612.99880000297,26603.41780004092,26603.55220001657,16051.247800001876,25501.558699994348,,26110.53179996088,25286.71370004304,Extended template,0,0.0863000750541687,4,yes,1024
0,0,0.0224400078877806,0.0224400078877806,white,yes,psycho,psycho,psycho,0,uniform,0,undefined,0,n,1,0,7,1,1,0,0,0,0,,7,0,7,7,0,7,1,7,7,Mon Dec  4 22:15:17 2023,A template containing a practice and an experimental phase,yes,언어학과심리실험_B조_기말과제용심리실험.osexp,C:\Users\caphi\Downloads,no,mono,no,18,no,black,no,no,768,psycho,4,4,0,C:\Users\caphi\Downloads\quickrun.csv,psycho,Lentiform Loewenfeld,3.3.14,no,우산,artifactual,similar-environmental,0,None,,a,,d,None,n,0.0258999643847346,,414.1253000125289,,10437.6837000018,0.0258999643847346,610.4279999854043,2,psycho,1024,2,48000,-16,experiment,999,odd,비,natural,,27424.26100000739,20779.88489996642,20779.77789996657,,20364.446999970824,5587.741099996492,20779.229799984023,,26715.306299971417,5612.99880000297,28139.307099976577,28139.47699998971,16051.247800001876,26920.999499969184,,27528.150200028904,26707.892399979755,Extended template,0,0.1122000394389033,5,yes,1024
0,0,0.0230833344782392,0.0230833344782392,white,yes,psycho,psycho,psycho,0,uniform,0,undefined,0,a,1,0,8,1,1,0,0,0,0,,8,0,8,8,0,8,1,8,8,Mon Dec  4 22:15:17 2023,A template containing a practice and an experimental phase,yes,언어학과심리실험_B조_기말과제용심리실험.osexp,C:\Users\caphi\Downloads,no,mono,no,18,no,black,no,no,768,psycho,5,5,0,C:\Users\caphi\Downloads\quickrun.csv,psycho,Lentiform Loewenfeld,3.3.14,no,기계,artifactual,inclusive,0,None,,a,,d,None,a,0.0262999674305319,,414.1253000125289,,10437.6837000018,0.0262999674305319,469.4766000611708,2,psycho,1024,2,48000,-16,experiment,999,odd,컴퓨터,artifactual,,28966.54920000583,20779.88489996642,20779.77789996657,,20364.446999970824,5587.741099996492,20779.229799984023,,28257.003500009887,5612.99880000297,29540.504400036298,29540.68149998784,16051.247800001876,28462.51450001728,,29070.18229993992,28248.84160002693,Extended template,0,0.1385000068694353,6,yes,1024
0,0,0.0242142871554408,0.0242142871554408,white,yes,psycho,psycho,psycho,0,uniform,0,undefined,0,n,1,0,9,1,1,0,0,0,0,,9,0,9,9,0,9,1,9,9,Mon Dec  4 22:15:17 2023,A template containing a practice and an experimental phase,yes,언어학과심리실험_B조_기말과제용심리실험.osexp,C:\Users\caphi\Downloads,no,mono,no,18,no,black,no,no,768,psycho,6,6,0,C:\Users\caphi\Downloads\quickrun.csv,psycho,Lentiform Loewenfeld,3.3.14,no,전등,artifactual,no-correlation,0,None,,a,,d,None,n,0.0310000032186508,,414.1253000125289,,10437.6837000018,0.0310000032186508,440.8477999968454,2,psycho,1024,2,48000,-16,experiment,999,odd,소,natural,,30361.97530000936,20779.88489996642,20779.77789996657,,20364.446999970824,5587.741099996492,20779.229799984023,,29651.899500051517,5612.99880000297,30907.758299959823,30907.96059998684,16051.247800001876,29857.815099996515,,30465.95159999561,29643.057900015265,Extended template,0,0.1695000100880861,7,yes,1024
0,0,0.0238125066971406,0.0238125066971406,white,yes,psycho,psycho,psycho,0,uniform,0,undefined,0,x,1,0,10,1,1,0,0,0,0,,10,0,10,10,0,10,1,10,10,Mon Dec  4 22:15:17 2023,A template containing a practice and an experimental phase,yes,언어학과심리실험_B조_기말과제용심리실험.osexp,C:\Users\caphi\Downloads,no,mono,no,18,no,black,no,no,768,psycho,7,7,0,C:\Users\caphi\Downloads\quickrun.csv,psycho,Lentiform Loewenfeld,3.3.14,no,절벽,natural,non-word,0,None,,a,,d,None,x,0.0210000434890389,,414.1253000125289,,10437.6837000018,0.0210000434890389,833.0745999701321,2,psycho,1024,2,48000,-16,experiment,999,odd,물로프,non-word,,31729.3195000384,20779.88489996642,20779.77789996657,,20364.446999970824,5587.741099996492,20779.229799984023,,31019.61860002484,5612.99880000297,32667.57879999932,32667.732600006275,16051.247800001876,31225.32129997853,,31833.7628999725,31011.48079999257,Extended template,0,0.190500053577125,8,yes,1024
0,0,0.0236333321986926,0.0236333321986926,white,yes,psycho,psycho,psycho,0,uniform,0,undefined,0,n,1,0,11,1,1,0,0,0,0,,11,0,11,11,0,11,1,11,11,Mon Dec  4 22:15:17 2023,A template containing a practice and an experimental phase,yes,언어학과심리실험_B조_기말과제용심리실험.osexp,C:\Users\caphi\Downloads,no,mono,no,18,no,black,no,no,768,psycho,8,8,0,C:\Users\caphi\Downloads\quickrun.csv,psycho,Lentiform Loewenfeld,3.3.14,no,항구,artifactual,similar-environmental,0,None,,a,,d,None,n,0.0221999362111091,,414.1253000125289,,10437.6837000018,0.0221999362111091,591.7906999820843,2,psycho,1024,2,48000,-16,experiment,999,odd,바다,natural,,33482.98079997767,20779.88489996642,20779.77789996657,,20364.446999970824,5587.741099996492,20779.229799984023,,32773.40760000516,5612.99880000297,34179.73470001016,34179.894499946386,16051.247800001876,32978.87640004046,,33587.14139997028,32765.44320001267,Extended template,0,0.2126999897882342,9,yes,1024
0,0,0.0236700056120753,0.0236700056120753,white,yes,psycho,psycho,psycho,0,uniform,0,undefined,0,a,1,0,12,1,1,0,0,0,0,,12,0,12,12,0,12,1,12,12,Mon Dec  4 22:15:17 2023,A template containing a practice and an experimental phase,yes,언어학과심리실험_B조_기말과제용심리실험.osexp,C:\Users\caphi\Downloads,no,mono,no,18,no,black,no,no,768,psycho,9,9,0,C:\Users\caphi\Downloads\quickrun.csv,psycho,Lentiform Loewenfeld,3.3.14,no,학적,artifactual,same phoneme,0,None,,a,,d,None,a,0.024000066332519,,414.1253000125289,,10437.6837000018,0.024000066332519,542.5552999367937,2,psycho,1024,2,48000,-16,experiment,999,odd,학술,artifactual,,35013.04099999834,20779.88489996642,20779.77789996657,,20364.446999970824,5587.741099996492,20779.229799984023,,34303.0565000372,5612.99880000297,35660.094899940304,35660.26969999075,16051.247800001876,34508.72939999681,,35116.871700040065,34294.8427000083,Extended template,0,0.2367000561207533,10,yes,1024
0,0,0.0235363735224712,0.0235363735224712,white,yes,psycho,psycho,psycho,0,uniform,0,undefined,0,a,1,0,13,1,1,0,0,0,0,,13,0,13,13,0,13,1,13,13,Mon Dec  4 22:15:17 2023,A template containing a practice and an experimental phase,yes,언어학과심리실험_B조_기말과제용심리실험.osexp,C:\Users\caphi\Downloads,no,mono,no,18,no,black,no,no,768,psycho,10,10,0,C:\Users\caphi\Downloads\quickrun.csv,psycho,Lentiform Loewenfeld,3.3.14,no,키보드,artifactual,similar-environmental,0,None,,a,,d,None,a,0.0222000526264309,,414.1253000125289,,10437.6837000018,0.0222000526264309,482.0487999822944,2,psycho,1024,2,48000,-16,experiment,999,odd,컴퓨터,artifactual,,36488.97920001764,20779.88489996642,20779.77789996657,,20364.446999970824,5587.741099996492,20779.229799984023,,35773.005899973214,5612.99880000297,37075.8882999653,37076.06160000432,16051.247800001876,35978.57279994059,,36593.04369997699,35764.27980000153,Extended template,0,0.2589001087471843,11,yes,1024
0,0,0.023308345892777,0.023308345892777,white,yes,psycho,psycho,psycho,0,uniform,0,undefined,0,x,1,0,14,1,1,0,0,0,0,,14,0,14,14,0,14,1,14,14,Mon Dec  4 22:15:17 2023,A template containing a practice and an experimental phase,yes,언어학과심리실험_B조_기말과제용심리실험.osexp,C:\Users\caphi\Downloads,no,mono,no,18,no,black,no,no,768,psycho,11,11,0,C:\Users\caphi\Downloads\quickrun.csv,psycho,Lentiform Loewenfeld,3.3.14,no,폭풍,natural,non-word,0,None,,a,,d,None,x,0.0208000419661402,,414.1253000125289,,10437.6837000018,0.0208000419661402,681.1570000136271,2,psycho,1024,2,48000,-16,experiment,999,odd,섬강,non-word,,37890.45870001428,20779.88489996642,20779.77789996657,,20364.446999970824,5587.741099996492,20779.229799984023,,37180.97660003696,5612.99880000297,38676.36579996906,38676.5374999959,16051.247800001876,37386.44409994595,,37994.55059994944,37173.3548999764,Extended template,0,0.2797001507133245,12,yes,1024
0,0,0.0232923149059598,0.0232923149059598,white,yes,psycho,psycho,psycho,0,uniform,0,undefined,0,n,0,0,15,1,1,0,0,0,0,,15,0,15,15,0,15,1,15,15,Mon Dec  4 22:15:17 2023,A template containing a practice and an experimental phase,yes,언어학과심리실험_B조_기말과제용심리실험.osexp,C:\Users\caphi\Downloads,no,mono,no,18,no,black,no,no,768,psycho,12,12,0,C:\Users\caphi\Downloads\quickrun.csv,psycho,Lentiform Loewenfeld,3.3.14,no,달,artifactual,same phoneme,0,None,,a,,d,None,a,0.0230999430641531,,414.1253000125289,,10437.6837000018,0.0230999430641531,854.2281000409275,2,psycho,1024,2,48000,-16,experiment,999,odd,달력,natural,,39500.56980003137,20779.88489996642,20779.77789996657,,20364.446999970824,5587.741099996492,20779.229799984023,,38791.204200009815,5612.99880000297,40459.669600008056,40459.85570002813,16051.247800001876,38996.57890002709,,39604.70929997973,38782.582900021225,Extended template,0,0.3028000937774777,13,yes,1024
0,0,0.0234642980753311,0.0234642980753311,white,yes,psycho,psycho,psycho,0,uniform,0,undefined,0,n,1,0,16,1,1,0,0,0,0,,16,0,16,16,0,16,1,16,16,Mon Dec  4 22:15:17 2023,A template containing a practice and an experimental phase,yes,언어학과심리실험_B조_기말과제용심리실험.osexp,C:\Users\caphi\Downloads,no,mono,no,18,no,black,no,no,768,psycho,13,13,0,C:\Users\caphi\Downloads\quickrun.csv,psycho,Lentiform Loewenfeld,3.3.14,no,멜블옴,non-word,non-word,0,None,,a,,d,None,n,0.0257000792771577,,414.1253000125289,,10437.6837000018,0.0257000792771577,540.1606999803334,2,psycho,1024,2,48000,-16,experiment,999,odd,폭포,natural,,41279.27679999266,20779.88489996642,20779.77789996657,,20364.446999970824,5587.741099996492,20779.229799984023,,40569.160599960014,5612.99880000297,41924.650999950245,41924.87869993784,16051.247800001876,40774.95049999561,,41383.51950002834,40561.16489996202,Extended template,0,0.3285001730546355,14,yes,1024
0,0,0.0232666808490951,0.0232666808490951,white,yes,psycho,psycho,psycho,0,uniform,0,undefined,0,n,1,0,17,1,1,0,0,0,0,,17,0,17,17,0,17,1,17,17,Mon Dec  4 22:15:17 2023,A template containing a practice and an experimental phase,yes,언어학과심리실험_B조_기말과제용심리실험.osexp,C:\Users\caphi\Downloads,no,mono,no,18,no,black,no,no,768,psycho,14,14,0,C:\Users\caphi\Downloads\quickrun.csv,psycho,Lentiform Loewenfeld,3.3.14,no,과일,natural,inclusive,0,None,,a,,d,None,n,0.0205000396817922,,414.1253000125289,,10437.6837000018,0.0205000396817922,545.1091000577435,2,psycho,1024,2,48000,-16,experiment,999,odd,사과,natural,,42762.11340003647,20779.88489996642,20779.77789996657,,20364.446999970824,5587.741099996492,20779.229799984023,,42035.63940001186,5612.99880000297,43412.0288999984,43412.23879996687,16051.247800001876,42241.60349997692,,42866.17099994328,42027.292700018734,Extended template,0,0.3490002127364278,15,yes,1024
0,0,0.0233125101658515,0.0233125101658515,white,yes,psycho,psycho,psycho,0,uniform,0,undefined,0,a,1,0,18,1,1,0,0,0,0,,18,0,18,18,0,18,1,18,18,Mon Dec  4 22:15:17 2023,A template containing a practice and an experimental phase,yes,언어학과심리실험_B조_기말과제용심리실험.osexp,C:\Users\caphi\Downloads,no,mono,no,18,no,black,no,no,768,psycho,15,15,0,C:\Users\caphi\Downloads\quickrun.csv,psycho,Lentiform Loewenfeld,3.3.14,no,로봇,artifactual,same phoneme,0,None,,a,,d,None,a,0.0239999499171972,,414.1253000125289,,10437.6837000018,0.0239999499171972,569.7153999935836,2,psycho,1024,2,48000,-16,experiment,999,odd,로켓,artifactual,,44233.47820003983,20779.88489996642,20779.77789996657,,20364.446999970824,5587.741099996492,20779.229799984023,,43522.759299958125,5612.99880000297,44908.75850000885,44908.96579995752,16051.247800001876,43728.78999996465,,44337.981099961326,43514.51470004395,Extended template,0,0.373000162653625,16,yes,1024
0,0,0.0231882406617788,0.0231882406617788,white,yes,psycho,psycho,psycho,0,uniform,0,undefined,0,a,1,0,19,1,1,0,0,0,0,,19,0,19,19,0,19,1,19,19,Mon Dec  4 22:15:17 2023,A template containing a practice and an experimental phase,yes,언어학과심리실험_B조_기말과제용심리실험.osexp,C:\Users\caphi\Downloads,no,mono,no,18,no,black,no,no,768,psycho,16,16,0,C:\Users\caphi\Downloads\quickrun.csv,psycho,Lentiform Loewenfeld,3.3.14,no,컴퓨터,artifactual,similar-environmental,0,None,,a,,d,None,a,0.0211999285966157,,414.1253000125289,,10437.6837000018,0.0211999285966157,673.0193999828771,2,psycho,1024,2,48000,-16,experiment,999,odd,키보드,artifactual,,45730.8747000061,20779.88489996642,20779.77789996657,,20364.446999970824,5587.741099996492,20779.229799984023,,45020.1953999931,5612.99880000297,46508.672400028445,46508.88800004032,16051.247800001876,45225.92480003368,,45834.74149997346,45011.39630004764,Extended template,0,0.3942000912502408,17,yes,1024
0,0,0.0236222274704939,0.0236222274704939,white,yes,psycho,psycho,psycho,0,uniform,0,undefined,0,a,0,0,20,1,1,0,0,0,0,,20,0,20,20,0,20,1,20,20,Mon Dec  4 22:15:17 2023,A template containing a practice and an experimental phase,yes,언어학과심리실험_B조_기말과제용심리실험.osexp,C:\Users\caphi\Downloads,no,mono,no,18,no,black,no,no,768,psycho,17,17,0,C:\Users\caphi\Downloads\quickrun.csv,psycho,Lentiform Loewenfeld,3.3.14,no,벌레,natural,same phoneme,0,None,,a,,d,None,n,0.0310000032186508,,414.1253000125289,,10437.6837000018,0.0310000032186508,418.13240002375096,2,psycho,1024,2,48000,-16,experiment,999,odd,발레,artifactual,,47328.56589998119,20779.88489996642,20779.77789996657,,20364.446999970824,5587.741099996492,20779.229799984023,,46618.28669998795,5612.99880000297,47852.23159997258,47852.442499948665,16051.247800001876,46823.93900002353,,47433.207000023685,46610.01750000287,Extended template,0,0.4252000944688916,18,yes,1024
0,0,0.0235421129649406,0.0235421129649406,white,yes,psycho,psycho,psycho,0,uniform,0,undefined,0,n,1,0,21,1,1,0,0,0,0,,21,0,21,21,0,21,1,21,21,Mon Dec  4 22:15:17 2023,A template containing a practice and an experimental phase,yes,언어학과심리실험_B조_기말과제용심리실험.osexp,C:\Users\caphi\Downloads,no,mono,no,18,no,black,no,no,768,psycho,18,18,0,C:\Users\caphi\Downloads\quickrun.csv,psycho,Lentiform Loewenfeld,3.3.14,no,오일,natural,same phoneme,0,None,,a,,d,None,n,0.0221000518649816,,414.1253000125289,,10437.6837000018,0.0221000518649816,1074.3111000629142,2,psycho,1024,2,48000,-16,experiment,999,odd,오리,natural,,48673.3619000297,20779.88489996642,20779.77789996657,,20364.446999970824,5587.741099996492,20779.229799984023,,47962.83620002214,5612.99880000297,49852.976899943314,49853.19860000163,16051.247800001876,48168.58199995477,,48777.60649996344,47954.365300014615,Extended template,0,0.4473001463338732,19,yes,1024
0,0,0.0263500027358531,0.0263500027358531,white,yes,psycho,psycho,psycho,0,uniform,0,undefined,0,n,1,0,22,1,1,0,0,0,0,,22,0,22,22,0,22,1,22,22,Mon Dec  4 22:15:17 2023,A template containing a practice and an experimental phase,yes,언어학과심리실험_B조_기말과제용심리실험.osexp,C:\Users\caphi\Downloads,no,mono,no,18,no,black,no,no,768,psycho,19,19,0,C:\Users\caphi\Downloads\quickrun.csv,psycho,Lentiform Loewenfeld,3.3.14,no,꽃,natural,inclusive,0,None,,a,,d,None,n,0.0796999083831906,,414.1253000125289,,10437.6837000018,0.0796999083831906,486.0507999546826,2,psycho,1024,2,48000,-16,experiment,999,odd,해바라기,natural,,50677.86499997601,20779.88489996642,20779.77789996657,,20364.446999970824,5587.741099996492,20779.229799984023,,49967.69630000927,5612.99880000297,51268.73430004344,51269.0552000422,16051.247800001876,50173.15419996157,,50781.81710001081,49958.740400034,Extended template,0,0.5270000547170639,20,yes,1024
0,0,0.0261285763588689,0.0261285763588689,white,yes,psycho,psycho,psycho,0,uniform,0,undefined,0,a,1,0,23,1,1,0,0,0,0,,23,0,23,23,0,23,1,23,23,Mon Dec  4 22:15:17 2023,A template containing a practice and an experimental phase,yes,언어학과심리실험_B조_기말과제용심리실험.osexp,C:\Users\caphi\Downloads,no,mono,no,18,no,black,no,no,768,psycho,20,20,0,C:\Users\caphi\Downloads\quickrun.csv,psycho,Lentiform Loewenfeld,3.3.14,no,국가,artifactual,inclusive,0,None,,a,,d,None,a,0.0217000488191843,,414.1253000125289,,10437.6837000018,0.0217000488191843,585.7798000797629,2,psycho,1024,2,48000,-16,experiment,999,odd,대한민국,artifactual,,52090.40069999173,20779.88489996642,20779.77789996657,,20364.446999970824,5587.741099996492,20779.229799984023,,51379.45999996737,5612.99880000297,52780.89379996527,52781.11330000684,16051.247800001876,51585.16789996065,,52194.31159994565,51372.053600032814,Extended template,0,0.5487001035362482,21,yes,1024
0,0,0.02594091611999,0.02594091611999,white,yes,psycho,psycho,psycho,0,uniform,0,undefined,0,a,1,0,24,1,1,0,0,0,0,,24,0,24,24,0,24,1,24,24,Mon Dec  4 22:15:17 2023,A template containing a practice and an experimental phase,yes,언어학과심리실험_B조_기말과제용심리실험.osexp,C:\Users\caphi\Downloads,no,mono,no,18,no,black,no,no,768,psycho,21,21,0,C:\Users\caphi\Downloads\quickrun.csv,psycho,Lentiform Loewenfeld,3.3.14,no,구름,natural,same phoneme,0,None,,a,,d,None,a,0.0220000511035323,,414.1253000125289,,10437.6837000018,0.0220000511035323,634.8729999735951,2,psycho,1024,2,48000,-16,experiment,999,odd,구슬,artifactual,,53601.06310003903,20779.88489996642,20779.77789996657,,20364.446999970824,5587.741099996492,20779.229799984023,,52891.39889995568,5612.99880000297,54340.59619996697,54340.83050000481,16051.247800001876,53096.95539996028,,53705.01949999016,52882.82209995669,Extended template,0,0.5707001546397805,22,yes,1024
0,0,0.0257304383684759,0.0257304383684759,white,yes,psycho,psycho,psycho,0,uniform,0,undefined,0,a,1,0,25,1,1,0,0,0,0,,25,0,25,25,0,25,1,25,25,Mon Dec  4 22:15:17 2023,A template containing a practice and an experimental phase,yes,언어학과심리실험_B조_기말과제용심리실험.osexp,C:\Users\caphi\Downloads,no,mono,no,18,no,black,no,no,768,psycho,22,22,0,C:\Users\caphi\Downloads\quickrun.csv,psycho,Lentiform Loewenfeld,3.3.14,no,호수,natural,no-correlation,0,None,,a,,d,None,a,0.0210999278351664,,414.1253000125289,,10437.6837000018,0.0210999278351664,656.5097999991849,2,psycho,1024,2,48000,-16,experiment,999,odd,화장실,artifactual,,55170.7912000129,20779.88489996642,20779.77789996657,,20364.446999970824,5587.741099996492,20779.229799984023,,54461.12460002769,5612.99880000297,55932.76520003565,55932.99879995175,16051.247800001876,54667.01049997937,,55275.41610004846,54442.67889996991,Extended template,0,0.591800082474947,23,yes,1024
0,0,0.0255791722641636,0.0255791722641636,white,yes,psycho,psycho,psycho,0,uniform,0,undefined,0,n,1,0,26,1,1,0,0,0,0,,26,0,26,26,0,26,1,26,26,Mon Dec  4 22:15:17 2023,A template containing a practice and an experimental phase,yes,언어학과심리실험_B조_기말과제용심리실험.osexp,C:\Users\caphi\Downloads,no,mono,no,18,no,black,no,no,768,psycho,23,23,0,C:\Users\caphi\Downloads\quickrun.csv,psycho,Lentiform Loewenfeld,3.3.14,no,새,natural,inclusive,0,None,,a,,d,None,n,0.0221000518649816,,414.1253000125289,,10437.6837000018,0.0221000518649816,531.0807999921963,2,psycho,1024,2,48000,-16,experiment,999,odd,까치,natural,,56753.09889996424,20779.88489996642,20779.77789996657,,20364.446999970824,5587.741099996492,20779.229799984023,,56043.85989997536,5612.99880000297,57388.49249994382,57388.738699955866,16051.247800001876,56249.2849000264,,56856.61230003461,56036.03249997832,Extended template,0,0.6139001343399286,24,yes,1024
0,0,0.0272440072149038,0.0272440072149038,white,yes,psycho,psycho,psycho,0,uniform,0,undefined,0,n,1,0,27,1,1,0,0,0,0,,27,0,27,27,0,27,1,27,27,Mon Dec  4 22:15:17 2023,A template containing a practice and an experimental phase,yes,언어학과심리실험_B조_기말과제용심리실험.osexp,C:\Users\caphi\Downloads,no,mono,no,18,no,black,no,no,768,psycho,24,24,0,C:\Users\caphi\Downloads\quickrun.csv,psycho,Lentiform Loewenfeld,3.3.14,no,태양,natural,same phoneme,0,None,,a,,d,None,n,0.0672000460326671,,414.1253000125289,,10437.6837000018,0.0672000460326671,668.2361999992281,2,psycho,1024,2,48000,-16,experiment,999,odd,태풍,natural,,58217.80730003957,20779.88489996642,20779.77789996657,,20364.446999970824,5587.741099996492,20779.229799984023,,57507.78029998765,5612.99880000297,58996.3310000021,58996.628999942914,16051.247800001876,57713.6769000208,,58327.22590002231,57500.04079996143,Extended template,0,0.6811001803725958,25,yes,1024
0,0,0.0271846208936319,0.0271846208936319,white,yes,psycho,psycho,psycho,0,uniform,0,undefined,0,n,1,0,28,1,1,0,0,0,0,,28,0,28,28,0,28,1,28,28,Mon Dec  4 22:15:17 2023,A template containing a practice and an experimental phase,yes,언어학과심리실험_B조_기말과제용심리실험.osexp,C:\Users\caphi\Downloads,no,mono,no,18,no,black,no,no,768,psycho,25,25,0,C:\Users\caphi\Downloads\quickrun.csv,psycho,Lentiform Loewenfeld,3.3.14,no,수영,artifactual,similar-environmental,0,None,,a,,d,None,n,0.0256999628618359,,414.1253000125289,,10437.6837000018,0.0256999628618359,618.1511000031605,2,psycho,1024,2,48000,-16,experiment,999,odd,바다,natural,,59816.58800004516,20779.88489996642,20779.77789996657,,20364.446999970824,5587.741099996492,20779.229799984023,,59106.19079996832,5612.99880000297,60540.362900006585,60540.68059998099,16051.247800001876,59311.797600006685,,59921.30859999452,59098.389499937184,Extended template,0,0.7068001432344317,26,yes,1024
0,0,0.0269629699350507,0.0269629699350507,white,yes,psycho,psycho,psycho,0,uniform,0,undefined,0,a,0,0,29,1,1,0,0,0,0,,29,0,29,29,0,29,1,29,29,Mon Dec  4 22:15:17 2023,A template containing a practice and an experimental phase,yes,언어학과심리실험_B조_기말과제용심리실험.osexp,C:\Users\caphi\Downloads,no,mono,no,18,no,black,no,no,768,psycho,26,26,0,C:\Users\caphi\Downloads\quickrun.csv,psycho,Lentiform Loewenfeld,3.3.14,no,바다,natural,similar-environmental,0,None,,a,,d,None,n,0.0212000450119376,,414.1253000125289,,10437.6837000018,0.0212000450119376,847.2714000381529,2,psycho,1024,2,48000,-16,experiment,999,odd,배,artifactual,,61355.94949999359,20779.88489996642,20779.77789996657,,20364.446999970824,5587.741099996492,20779.229799984023,,60646.45779994317,5612.99880000297,62309.44310000632,62309.69779996667,16051.247800001876,60852.032399969175,,61461.083699949086,60638.25830002315,Extended template,0,0.7280001882463694,27,yes,1024
0,0,0.0267892942896911,0.0267892942896911,white,yes,psycho,psycho,psycho,0,uniform,0,undefined,0,n,1,0,30,1,1,0,0,0,0,,30,0,30,30,0,30,1,30,30,Mon Dec  4 22:15:17 2023,A template containing a practice and an experimental phase,yes,언어학과심리실험_B조_기말과제용심리실험.osexp,C:\Users\caphi\Downloads,no,mono,no,18,no,black,no,no,768,psycho,27,27,0,C:\Users\caphi\Downloads\quickrun.csv,psycho,Lentiform Loewenfeld,3.3.14,no,패딩,artifactual,similar-environmental,0,None,,a,,d,None,n,0.0221000518649816,,414.1253000125289,,10437.6837000018,0.0221000518649816,419.68419996555895,2,psycho,1024,2,48000,-16,experiment,999,odd,겨울,natural,,63136.70060003642,20779.88489996642,20779.77789996657,,20364.446999970824,5587.741099996492,20779.229799984023,,62425.99849996623,5612.99880000297,63661.2490999978,63661.549099953845,16051.247800001876,62631.877699983306,,63240.64329999965,62416.781899984926,Extended template,0,0.750100240111351,28,yes,1024
0,0,0.0266482860877596,0.0266482860877596,white,yes,psycho,psycho,psycho,0,uniform,0,undefined,0,n,1,0,31,1,1,0,0,0,0,,31,0,31,31,0,31,1,31,31,Mon Dec  4 22:15:17 2023,A template containing a practice and an experimental phase,yes,언어학과심리실험_B조_기말과제용심리실험.osexp,C:\Users\caphi\Downloads,no,mono,no,18,no,black,no,no,768,psycho,28,28,0,C:\Users\caphi\Downloads\quickrun.csv,psycho,Lentiform Loewenfeld,3.3.14,no,상새고,non-word,non-word,0,None,,a,,d,None,n,0.0227000564336776,,414.1253000125289,,10437.6837000018,0.0227000564336776,468.5279000550509,2,psycho,1024,2,48000,-16,experiment,999,odd,나뭇잎,natural,,64487.14179999661,20779.88489996642,20779.77789996657,,20364.446999970824,5587.741099996492,20779.229799984023,,63777.17230003327,5612.99880000297,65060.89109997265,65061.15249998402,16051.247800001876,63983.13730000518,,64591.44879993983,63769.0494999988,Extended template,0,0.7728002965450287,29,yes,1024
0,0,0.0264600113344689,0.0264600113344689,white,yes,psycho,psycho,psycho,0,uniform,0,undefined,0,a,1,0,32,1,1,0,0,0,0,,32,0,32,32,0,32,1,32,32,Mon Dec  4 22:15:17 2023,A template containing a practice and an experimental phase,yes,언어학과심리실험_B조_기말과제용심리실험.osexp,C:\Users\caphi\Downloads,no,mono,no,18,no,black,no,no,768,psycho,29,29,0,C:\Users\caphi\Downloads\quickrun.csv,psycho,Lentiform Loewenfeld,3.3.14,no,건물,artifactual,inclusive,0,None,,a,,d,None,a,0.0210000434890389,,414.1253000125289,,10437.6837000018,0.0210000434890389,538.418099982664,2,psycho,1024,2,48000,-16,experiment,999,odd,병원,artifactual,,65881.59480004106,20779.88489996642,20779.77789996657,,20364.446999970824,5587.741099996492,20779.229799984023,,65170.96280003898,5612.99880000297,66524.64479999617,66524.91789998021,16051.247800001876,65376.9288000185,,65985.40130001493,65163.13130001072,Extended template,0,0.7938003400340676,30,yes,1024
0,0,0.026303234570209,0.026303234570209,white,yes,psycho,psycho,psycho,0,uniform,0,undefined,0,a,1,0,33,1,1,0,0,0,0,,33,0,33,33,0,33,1,33,33,Mon Dec  4 22:15:17 2023,A template containing a practice and an experimental phase,yes,언어학과심리실험_B조_기말과제용심리실험.osexp,C:\Users\caphi\Downloads,no,mono,no,18,no,black,no,no,768,psycho,30,30,0,C:\Users\caphi\Downloads\quickrun.csv,psycho,Lentiform Loewenfeld,3.3.14,no,구름,natural,same phoneme,0,None,,a,,d,None,a,0.0215999316424131,,414.1253000125289,,10437.6837000018,0.0215999316424131,555.8290999615565,2,psycho,1024,2,48000,-16,experiment,999,odd,구두,artifactual,,67359.86470000353,20779.88489996642,20779.77789996657,,20364.446999970824,5587.741099996492,20779.229799984023,,66650.3813000163,5612.99880000297,68020.79890004825,68021.09449997079,16051.247800001876,66855.88639997877,,67464.1206000233,66641.4708000375,Extended template,0,0.8154002716764808,31,yes,1024
0,0,0.0262718822341412,0.0262718822341412,white,yes,psycho,psycho,psycho,0,uniform,0,undefined,0,a,1,0,34,1,1,0,0,0,0,,34,0,34,34,0,34,1,34,34,Mon Dec  4 22:15:17 2023,A template containing a practice and an experimental phase,yes,언어학과심리실험_B조_기말과제용심리실험.osexp,C:\Users\caphi\Downloads,no,mono,no,18,no,black,no,no,768,psycho,31,31,0,C:\Users\caphi\Downloads\quickrun.csv,psycho,Lentiform Loewenfeld,3.3.14,no,프린터,artifactual,similar-environmental,0,None,,a,,d,None,a,0.0252999598160386,,414.1253000125289,,10437.6837000018,0.0252999598160386,978.0432999832556,2,psycho,1024,2,48000,-16,experiment,999,odd,종이,artifactual,,68857.45200002566,20779.88489996642,20779.77789996657,,20364.446999970824,5587.741099996492,20779.229799984023,,68146.74650004599,5612.99880000297,69940.73929998558,69941.06460001785,16051.247800001876,68352.68440004438,,68961.82460000273,68127.9518000083,Extended template,0,0.8407002314925194,32,yes,1024
0,0,0.0261424292782039,0.0261424292782039,white,yes,psycho,psycho,psycho,0,uniform,0,undefined,0,a,1,0,35,1,1,0,0,0,0,,35,0,35,35,0,35,1,35,35,Mon Dec  4 22:15:17 2023,A template containing a practice and an experimental phase,yes,언어학과심리실험_B조_기말과제용심리실험.osexp,C:\Users\caphi\Downloads,no,mono,no,18,no,black,no,no,768,psycho,32,32,0,C:\Users\caphi\Downloads\quickrun.csv,psycho,Lentiform Loewenfeld,3.3.14,no,바람,natural,similar-environmental,0,None,,a,,d,None,a,0.0219999346882104,,414.1253000125289,,10437.6837000018,0.0219999346882104,567.8266999311745,2,psycho,1024,2,48000,-16,experiment,999,odd,창문,artifactual,,70756.08429999556,20779.88489996642,20779.77789996657,,20364.446999970824,5587.741099996492,20779.229799984023,,70047.30440001003,5612.99880000297,71429.25010004546,71429.5337999938,16051.247800001876,70252.94020003639,,70860.35460000858,70038.80410001148,Extended template,0,0.8627001661807299,33,yes,1024
0,0,0.0260323559974922,0.0260323559974922,white,yes,psycho,psycho,psycho,0,uniform,0,undefined,0,n,1,0,36,1,1,0,0,0,0,,36,0,36,36,0,36,1,36,36,Mon Dec  4 22:15:17 2023,A template containing a practice and an experimental phase,yes,언어학과심리실험_B조_기말과제용심리실험.osexp,C:\Users\caphi\Downloads,no,mono,no,18,no,black,no,no,768,psycho,33,33,0,C:\Users\caphi\Downloads\quickrun.csv,psycho,Lentiform Loewenfeld,3.3.14,no,악어,natural,similar-environmental,0,None,,a,,d,None,n,0.0223999377340078,,414.1253000125289,,10437.6837000018,0.0223999377340078,471.8982999911532,2,psycho,1024,2,48000,-16,experiment,999,odd,늪,natural,,72252.17879994307,20779.88489996642,20779.77789996657,,20364.446999970824,5587.741099996492,20779.229799984023,,71541.37490002904,5612.99880000297,72828.75510002486,72829.04109999072,16051.247800001876,71747.62819998432,,72355.9346999973,71532.58030000143,Extended template,0,0.8851001039147377,34,yes,1024
0,0,0.0260142908830727,0.0260142908830727,white,yes,psycho,psycho,psycho,0,uniform,0,undefined,0,a,1,0,37,1,1,0,0,0,0,,37,0,37,37,0,37,1,37,37,Mon Dec  4 22:15:17 2023,A template containing a practice and an experimental phase,yes,언어학과심리실험_B조_기말과제용심리실험.osexp,C:\Users\caphi\Downloads,no,mono,no,18,no,black,no,no,768,psycho,34,34,0,C:\Users\caphi\Downloads\quickrun.csv,psycho,Lentiform Loewenfeld,3.3.14,no,로켓,artifactual,same phoneme,0,None,,a,,d,None,a,0.0254000769928097,,414.1253000125289,,10437.6837000018,0.0254000769928097,607.9714000225067,2,psycho,1024,2,48000,-16,experiment,999,odd,로봇,artifactual,,73651.98219998274,20779.88489996642,20779.77789996657,,20364.446999970824,5587.741099996492,20779.229799984023,,72941.73349998891,5612.99880000297,74364.99619996175,74365.41830003262,16051.247800001876,73147.98629994038,,73756.00439996924,72932.18490004074,Extended template,0,0.9105001809075476,35,yes,1024
0,0,0.0259138921844876,0.0259138921844876,white,yes,psycho,psycho,psycho,0,uniform,0,undefined,0,n,1,0,38,1,1,0,0,0,0,,38,0,38,38,0,38,1,38,38,Mon Dec  4 22:15:17 2023,A template containing a practice and an experimental phase,yes,언어학과심리실험_B조_기말과제용심리실험.osexp,C:\Users\caphi\Downloads,no,mono,no,18,no,black,no,no,768,psycho,35,35,0,C:\Users\caphi\Downloads\quickrun.csv,psycho,Lentiform Loewenfeld,3.3.14,no,보트,artifactual,same phoneme,0,None,,a,,d,None,n,0.0223999377340078,,414.1253000125289,,10437.6837000018,0.0223999377340078,512.8699999768287,2,psycho,1024,2,48000,-16,experiment,999,odd,보름달,natural,,75187.20459996257,20779.88489996642,20779.77789996657,,20364.446999970824,5587.741099996492,20779.229799984023,,74476.6356999753,5612.99880000297,75804.70580002293,75805.1694999449,16051.247800001876,74683.00189997535,,75290.97530001309,74468.21580000687,Extended template,0,0.9329001186415552,36,yes,1024
0,0,0.0259918947326573,0.0259918947326573,white,yes,psycho,psycho,psycho,0,uniform,0,undefined,0,a,1,0,39,1,1,0,0,0,0,,39,0,39,39,0,39,1,39,39,Mon Dec  4 22:15:17 2023,A template containing a practice and an experimental phase,yes,언어학과심리실험_B조_기말과제용심리실험.osexp,C:\Users\caphi\Downloads,no,mono,no,18,no,black,no,no,768,psycho,36,36,0,C:\Users\caphi\Downloads\quickrun.csv,psycho,Lentiform Loewenfeld,3.3.14,no,종이,artifactual,similar-environmental,0,None,,a,,d,None,a,0.0287999864667654,,414.1253000125289,,10437.6837000018,0.0287999864667654,466.6795999510214,2,psycho,1024,2,48000,-16,experiment,999,odd,프린터,artifactual,,76633.52679996751,20779.88489996642,20779.77789996657,,20364.446999970824,5587.741099996492,20779.229799984023,,75923.87569998391,5612.99880000297,77205.03249997273,77205.38790000137,16051.247800001876,76129.72009996884,,76737.38599999342,75915.4123000335,Extended template,0,0.9617001051083208,37,yes,1024
0,0,0.0258552639647141,0.0258552639647141,white,yes,psycho,psycho,psycho,0,uniform,0,undefined,0,a,0,0,40,1,1,0,0,0,0,,40,0,40,40,0,40,1,40,40,Mon Dec  4 22:15:17 2023,A template containing a practice and an experimental phase,yes,언어학과심리실험_B조_기말과제용심리실험.osexp,C:\Users\caphi\Downloads,no,mono,no,18,no,black,no,no,768,psycho,37,37,0,C:\Users\caphi\Downloads\quickrun.csv,psycho,Lentiform Loewenfeld,3.3.14,no,악어,natural,same phoneme,0,None,,a,,d,None,n,0.0207999255508184,,414.1253000125289,,10437.6837000018,0.0207999255508184,794.9143000878394,2,psycho,1024,2,48000,-16,experiment,999,odd,악기,artifactual,,78025.73789993767,20779.88489996642,20779.77789996657,,20364.446999970824,5587.741099996492,20779.229799984023,,77316.89210003242,5612.99880000297,78925.30570004601,78925.62390002422,16051.247800001876,77522.48349995352,,78129.4730999507,77308.7865000125,Extended template,0,0.9825000306591392,38,yes,1024
0,0,0.0257333322690847,0.0257333322690847,white,yes,psycho,psycho,psycho,0,uniform,0,undefined,0,n,1,0,41,1,1,0,0,0,0,,41,0,41,41,0,41,1,41,41,Mon Dec  4 22:15:17 2023,A template containing a practice and an experimental phase,yes,언어학과심리실험_B조_기말과제용심리실험.osexp,C:\Users\caphi\Downloads,no,mono,no,18,no,black,no,no,768,psycho,38,38,0,C:\Users\caphi\Downloads\quickrun.csv,psycho,Lentiform Loewenfeld,3.3.14,no,숲,natural,inclusive,0,None,,a,,d,None,n,0.0210999278351664,,414.1253000125289,,10437.6837000018,0.0210999278351664,466.42790001351386,2,psycho,1024,2,48000,-16,experiment,999,odd,나무,natural,,79745.74139993638,20779.88489996642,20779.77789996657,,20364.446999970824,5587.741099996492,20779.229799984023,,79035.90999997687,5612.99880000297,80317.47250002809,80317.80409999192,16051.247800001876,79241.73220002558,,79850.11759994086,79027.89120003581,Extended template,0,1.0035999584943056,39,yes,1024
0,0,0.0256450002780184,0.0256450002780184,white,yes,psycho,psycho,psycho,0,uniform,0,undefined,0,a,1,0,42,1,1,0,0,0,0,,42,0,42,42,0,42,1,42,42,Mon Dec  4 22:15:17 2023,A template containing a practice and an experimental phase,yes,언어학과심리실험_B조_기말과제용심리실험.osexp,C:\Users\caphi\Downloads,no,mono,no,18,no,black,no,no,768,psycho,39,39,0,C:\Users\caphi\Downloads\quickrun.csv,psycho,Lentiform Loewenfeld,3.3.14,no,카메라,artifactual,inclusive,0,None,,a,,d,None,a,0.0222000526264309,,414.1253000125289,,10437.6837000018,0.0222000526264309,558.4916999796405,2,psycho,1024,2,48000,-16,experiment,999,odd,렌즈,artifactual,,81141.4616999682,20779.88489996642,20779.77789996657,,20364.446999970824,5587.741099996492,20779.229799984023,,80430.5941000348,5612.99880000297,81805.24539994076,81805.58309995104,16051.247800001876,80636.54740003403,,81245.70349999703,80422.00929997489,Extended template,0,1.0258000111207366,40,yes,1024
0,0,0.025534147691981,0.025534147691981,white,yes,psycho,psycho,psycho,0,uniform,0,undefined,0,a,0,0,43,1,1,0,0,0,0,,43,0,43,43,0,43,1,43,43,Mon Dec  4 22:15:17 2023,A template containing a practice and an experimental phase,yes,언어학과심리실험_B조_기말과제용심리실험.osexp,C:\Users\caphi\Downloads,no,mono,no,18,no,black,no,no,768,psycho,40,40,0,C:\Users\caphi\Downloads\quickrun.csv,psycho,Lentiform Loewenfeld,3.3.14,no,바다,natural,same phoneme,0,None,,a,,d,None,n,0.0211000442504882,,414.1253000125289,,10437.6837000018,0.0211000442504882,517.0125999720767,2,psycho,1024,2,48000,-16,experiment,999,odd,바닥,artifactual,,82631.61179993767,20779.88489996642,20779.77789996657,,20364.446999970824,5587.741099996492,20779.229799984023,,81914.45889999159,5612.99880000297,83253.24939994607,83253.59279999975,16051.247800001876,82128.2905000262,,82735.35670002457,81905.33350000624,Extended template,0,1.0469000553712249,41,yes,1024
0,0,0.0254476215646025,0.0254476215646025,white,yes,psycho,psycho,psycho,0,uniform,0,undefined,0,x,1,0,44,1,1,0,0,0,0,,44,0,44,44,0,44,1,44,44,Mon Dec  4 22:15:17 2023,A template containing a practice and an experimental phase,yes,언어학과심리실험_B조_기말과제용심리실험.osexp,C:\Users\caphi\Downloads,no,mono,no,18,no,black,no,no,768,psycho,41,41,0,C:\Users\caphi\Downloads\quickrun.csv,psycho,Lentiform Loewenfeld,3.3.14,no,냉장고,artifactual,non-word,0,None,,a,,d,None,x,0.0219000503420829,,414.1253000125289,,10437.6837000018,0.0219000503420829,699.999799951911,2,psycho,1024,2,48000,-16,experiment,999,odd,로방삭,non-word,,84072.29229994118,20779.88489996642,20779.77789996657,,20364.446999970824,5587.741099996492,20779.229799984023,,83362.98610002268,5612.99880000297,84877.53329996485,84877.89869995322,16051.247800001876,83568.34070000332,,84176.56779999379,83354.97240000404,Extended template,0,1.068800105713308,42,yes,1024
0,0,0.0253651199082649,0.0253651199082649,white,yes,psycho,psycho,psycho,0,uniform,0,undefined,0,a,1,0,45,1,1,0,0,0,0,,45,0,45,45,0,45,1,45,45,Mon Dec  4 22:15:17 2023,A template containing a practice and an experimental phase,yes,언어학과심리실험_B조_기말과제용심리실험.osexp,C:\Users\caphi\Downloads,no,mono,no,18,no,black,no,no,768,psycho,42,42,0,C:\Users\caphi\Downloads\quickrun.csv,psycho,Lentiform Loewenfeld,3.3.14,no,바다,natural,same phoneme,0,None,,a,,d,None,a,0.0219000503420829,,414.1253000125289,,10437.6837000018,0.0219000503420829,1042.8531999932602,2,psycho,1024,2,48000,-16,experiment,999,odd,바구니,artifactual,,85697.41729996167,20779.88489996642,20779.77789996657,,20364.446999970824,5587.741099996492,20779.229799984023,,84987.90009994991,5612.99880000297,86845.0730999466,86845.40670004208,16051.247800001876,85193.42469994444,,85801.3243000023,84979.43129995838,Extended template,0,1.0907001560553908,43,yes,1024
0,0,0.0252750046043233,0.0252750046043233,white,yes,psycho,psycho,psycho,0,uniform,0,undefined,0,n,1,0,46,1,1,0,0,0,0,,46,0,46,46,0,46,1,46,46,Mon Dec  4 22:15:17 2023,A template containing a practice and an experimental phase,yes,언어학과심리실험_B조_기말과제용심리실험.osexp,C:\Users\caphi\Downloads,no,mono,no,18,no,black,no,no,768,psycho,43,43,0,C:\Users\caphi\Downloads\quickrun.csv,psycho,Lentiform Loewenfeld,3.3.14,no,산,natural,similar-environmental,0,None,,a,,d,None,n,0.0214000465348362,,414.1253000125289,,10437.6837000018,0.0214000465348362,753.1501000048593,2,psycho,1024,2,48000,-16,experiment,999,odd,계곡,natural,,87660.02469998784,20779.88489996642,20779.77789996657,,20364.446999970824,5587.741099996492,20779.229799984023,,86950.31520002522,5612.99880000297,88518.05059995968,88518.39109999128,16051.247800001876,87156.06469998602,,87763.91229999717,86941.32490002085,Extended template,0,1.1121002025902271,44,yes,1024
0,0,0.0251977833815746,0.0251977833815746,white,yes,psycho,psycho,psycho,0,uniform,0,undefined,0,a,1,0,47,1,1,0,0,0,0,,47,0,47,47,0,47,1,47,47,Mon Dec  4 22:15:17 2023,A template containing a practice and an experimental phase,yes,언어학과심리실험_B조_기말과제용심리실험.osexp,C:\Users\caphi\Downloads,no,mono,no,18,no,black,no,no,768,psycho,44,44,0,C:\Users\caphi\Downloads\quickrun.csv,psycho,Lentiform Loewenfeld,3.3.14,no,피자,artifactual,similar-environmental,0,None,,a,,d,None,a,0.0218000495806336,,414.1253000125289,,10437.6837000018,0.0218000495806336,641.2148999515921,2,psycho,1024,2,48000,-16,experiment,999,odd,파스타,artifactual,,89339.6893000463,20779.88489996642,20779.77789996657,,20364.446999970824,5587.741099996492,20779.229799984023,,88629.79669997003,5612.99880000297,90085.68579994608,90086.04810002726,16051.247800001876,88835.88809997309,,89443.43530002516,88621.08489999082,Extended template,0,1.1339002521708608,45,yes,1024
0,0,0.0251239196032933,0.0251239196032933,white,yes,psycho,psycho,psycho,0,uniform,0,undefined,0,a,1,0,48,1,1,0,0,0,0,,48,0,48,48,0,48,1,48,48,Mon Dec  4 22:15:17 2023,A template containing a practice and an experimental phase,yes,언어학과심리실험_B조_기말과제용심리실험.osexp,C:\Users\caphi\Downloads,no,mono,no,18,no,black,no,no,768,psycho,45,45,0,C:\Users\caphi\Downloads\quickrun.csv,psycho,Lentiform Loewenfeld,3.3.14,no,전기,natural,similar-environmental,0,None,,a,,d,None,a,0.0218000495806336,,414.1253000125289,,10437.6837000018,0.0218000495806336,791.9964999891818,2,psycho,1024,2,48000,-16,experiment,999,odd,전선,artifactual,,90908.61399995627,20779.88489996642,20779.77789996657,,20364.446999970824,5587.741099996492,20779.229799984023,,90198.73429997824,5612.99880000297,91805.53689994848,91805.88630004786,16051.247800001876,90404.4185000239,,91012.49230001122,90190.10609993713,Extended template,0,1.1557003017514944,46,yes,1024
0,0,0.0250510712887378,0.0250510712887378,white,yes,psycho,psycho,psycho,0,uniform,0,undefined,0,n,1,0,49,1,1,0,0,0,0,,49,0,49,49,0,49,1,49,49,Mon Dec  4 22:15:17 2023,A template containing a practice and an experimental phase,yes,언어학과심리실험_B조_기말과제용심리실험.osexp,C:\Users\caphi\Downloads,no,mono,no,18,no,black,no,no,768,psycho,46,46,0,C:\Users\caphi\Downloads\quickrun.csv,psycho,Lentiform Loewenfeld,3.3.14,no,동굴,natural,similar-environmental,0,None,,a,,d,None,n,0.0217000488191843,,414.1253000125289,,10437.6837000018,0.0217000488191843,566.9400999322534,2,psycho,1024,2,48000,-16,experiment,999,odd,박쥐,natural,,92637.88529997692,20779.88489996642,20779.77789996657,,20364.446999970824,5587.741099996492,20779.229799984023,,91927.07029997835,5612.99880000297,93309.79389999992,93310.154399951,16051.247800001876,92132.79679999688,,92741.86950002331,91918.35519997404,Extended template,0,1.1774003505706787,47,yes,1024
0,0,0.0249479247334723,0.0249479247334723,white,yes,psycho,psycho,psycho,0,uniform,0,undefined,0,n,1,0,50,1,1,0,0,0,0,,50,0,50,50,0,50,1,50,50,Mon Dec  4 22:15:17 2023,A template containing a practice and an experimental phase,yes,언어학과심리실험_B조_기말과제용심리실험.osexp,C:\Users\caphi\Downloads,no,mono,no,18,no,black,no,no,768,psycho,47,47,0,C:\Users\caphi\Downloads\quickrun.csv,psycho,Lentiform Loewenfeld,3.3.14,no,전구,artifactual,similar-environmental,0,None,,a,,d,None,n,0.0201000366359949,,414.1253000125289,,10437.6837000018,0.0201000366359949,700.9554000105709,2,psycho,1024,2,48000,-16,experiment,999,odd,빛,natural,,94127.94719997328,20779.88489996642,20779.77789996657,,20364.446999970824,5587.741099996492,20779.229799984023,,93417.22609999124,5612.99880000297,94933.70479997247,94934.08100004308,16051.247800001876,93623.13960003668,,94231.76410002634,93408.78459997477,Extended template,0,1.1975003872066736,48,yes,1024
0,0,0.0251102123447522,0.0251102123447522,white,yes,psycho,psycho,psycho,0,uniform,0,undefined,0,a,1,0,51,1,1,0,0,0,0,,51,0,51,51,0,51,1,51,51,Mon Dec  4 22:15:17 2023,A template containing a practice and an experimental phase,yes,언어학과심리실험_B조_기말과제용심리실험.osexp,C:\Users\caphi\Downloads,no,mono,no,18,no,black,no,no,768,psycho,48,48,0,C:\Users\caphi\Downloads\quickrun.csv,psycho,Lentiform Loewenfeld,3.3.14,no,교통,artifactual,inclusive,0,None,,a,,d,None,a,0.0329000176861882,,414.1253000125289,,10437.6837000018,0.0329000176861882,520.3001999761909,2,psycho,1024,2,48000,-16,experiment,999,odd,자동차,artifactual,,95756.0805999674,20779.88489996642,20779.77789996657,,20364.446999970824,5587.741099996492,20779.229799984023,,95045.25660001671,5612.99880000297,96381.57089997549,96382.04860000404,16051.247800001876,95251.10460002908,,95860.20590004046,95036.69290000109,Extended template,0,1.2304004048928618,49,yes,1024
0,0,0.0250360090285539,0.0250360090285539,white,yes,psycho,psycho,psycho,0,uniform,0,undefined,0,n,1,0,52,1,1,0,0,0,0,,52,0,52,52,0,52,1,52,52,Mon Dec  4 22:15:17 2023,A template containing a practice and an experimental phase,yes,언어학과심리실험_B조_기말과제용심리실험.osexp,C:\Users\caphi\Downloads,no,mono,no,18,no,black,no,no,768,psycho,49,49,0,C:\Users\caphi\Downloads\quickrun.csv,psycho,Lentiform Loewenfeld,3.3.14,no,등산로,artifactual,similar-environmental,0,None,,a,,d,None,n,0.0214000465348362,,414.1253000125289,,10437.6837000018,0.0214000465348362,500.537300016731,2,psycho,1024,2,48000,-16,experiment,999,odd,산,natural,,97208.45180004837,20779.88489996642,20779.77789996657,,20364.446999970824,5587.741099996492,20779.229799984023,,96498.22629999836,5612.99880000297,97814.30289999116,97814.67859994154,16051.247800001876,96703.73319997452,,97312.8321999684,96489.04360004237,Extended template,0,1.251800451427698,50,yes,1024
0,0,0.024980402040277,0.024980402040277,white,yes,psycho,psycho,psycho,0,uniform,0,undefined,0,a,1,0,53,1,1,0,0,0,0,,53,0,53,53,0,53,1,53,53,Mon Dec  4 22:15:17 2023,A template containing a practice and an experimental phase,yes,언어학과심리실험_B조_기말과제용심리실험.osexp,C:\Users\caphi\Downloads,no,mono,no,18,no,black,no,no,768,psycho,50,50,0,C:\Users\caphi\Downloads\quickrun.csv,psycho,Lentiform Loewenfeld,3.3.14,no,기차,artifactual,no-correlation,0,None,,a,,d,None,a,0.0222000526264309,,414.1253000125289,,10437.6837000018,0.0222000526264309,679.6954000601545,2,psycho,1024,2,48000,-16,experiment,999,odd,가방,artifactual,,98636.74730004276,20779.88489996642,20779.77789996657,,20364.446999970824,5587.741099996492,20779.229799984023,,97926.06199998409,5612.99880000297,99421.87339998782,99422.24790004548,16051.247800001876,98131.3939000247,,98741.17079994176,97917.39770001732,Extended template,0,1.2740005040541291,51,yes,1024
0,0,0.0249461624592256,0.0249461624592256,white,yes,psycho,psycho,psycho,0,uniform,0,undefined,0,n,1,0,54,1,1,0,0,0,0,,54,0,54,54,0,54,1,54,54,Mon Dec  4 22:15:17 2023,A template containing a practice and an experimental phase,yes,언어학과심리실험_B조_기말과제용심리실험.osexp,C:\Users\caphi\Downloads,no,mono,no,18,no,black,no,no,768,psycho,51,51,0,C:\Users\caphi\Downloads\quickrun.csv,psycho,Lentiform Loewenfeld,3.3.14,no,대학교,artifactual,no-correlation,0,None,,a,,d,None,n,0.0231999438256025,,414.1253000125289,,10437.6837000018,0.0231999438256025,519.963400089182,2,psycho,1024,2,48000,-16,experiment,999,odd,계곡,natural,,100237.14039998596,20779.88489996642,20779.77789996657,,20364.446999970824,5587.741099996492,20779.229799984023,,99528.05740002076,5612.99880000297,100862.26349999195,100862.6444999827,16051.247800001876,99733.4070999641,,100341.22209995984,99519.79970000684,Extended template,0,1.2972004478797317,52,yes,1024
0,0,0.0249679323356106,0.0249679323356106,white,yes,psycho,psycho,psycho,0,uniform,0,undefined,0,a,1,0,55,1,1,0,0,0,0,,55,0,55,55,0,55,1,55,55,Mon Dec  4 22:15:17 2023,A template containing a practice and an experimental phase,yes,언어학과심리실험_B조_기말과제용심리실험.osexp,C:\Users\caphi\Downloads,no,mono,no,18,no,black,no,no,768,psycho,52,52,0,C:\Users\caphi\Downloads\quickrun.csv,psycho,Lentiform Loewenfeld,3.3.14,no,바람,natural,no-correlation,0,None,,a,,d,None,a,0.0260999659076333,,414.1253000125289,,10437.6837000018,0.0260999659076333,1394.3011000519618,2,psycho,1024,2,48000,-16,experiment,999,odd,버스,artifactual,,101691.27449998632,20779.88489996642,20779.77789996657,,20364.446999970824,5587.741099996492,20779.229799984023,,100981.69629997574,5612.99880000297,103191.39479997102,103191.81079999544,16051.247800001876,101187.43669998366,,101795.85759993644,100972.4885999458,Extended template,0,1.323300413787365,53,yes,1024
0,0,0.0248981566444315,0.0248981566444315,white,yes,psycho,psycho,psycho,0,uniform,0,undefined,0,n,1,0,56,1,1,0,0,0,0,,56,0,56,56,0,56,1,56,56,Mon Dec  4 22:15:17 2023,A template containing a practice and an experimental phase,yes,언어학과심리실험_B조_기말과제용심리실험.osexp,C:\Users\caphi\Downloads,no,mono,no,18,no,black,no,no,768,psycho,53,53,0,C:\Users\caphi\Downloads\quickrun.csv,psycho,Lentiform Loewenfeld,3.3.14,no,밤하늘,natural,no-correlation,0,None,,a,,d,None,n,0.0212000450119376,,414.1253000125289,,10437.6837000018,0.0212000450119376,511.8749999674037,2,psycho,1024,2,48000,-16,experiment,999,odd,바위,natural,,104013.1116999546,20779.88489996642,20779.77789996657,,20364.446999970824,5587.741099996492,20779.229799984023,,103303.64199995527,5612.99880000297,104629.84269997104,104630.23749995044,16051.247800001876,103509.27499996033,,104116.92820000462,103295.25670001747,Extended template,0,1.3445004587993026,54,yes,1024
0,0,0.0248291000554507,0.0248291000554507,white,yes,psycho,psycho,psycho,0,uniform,0,undefined,0,n,1,0,57,1,1,0,0,0,0,,57,0,57,57,0,57,1,57,57,Mon Dec  4 22:15:17 2023,A template containing a practice and an experimental phase,yes,언어학과심리실험_B조_기말과제용심리실험.osexp,C:\Users\caphi\Downloads,no,mono,no,18,no,black,no,no,768,psycho,54,54,0,C:\Users\caphi\Downloads\quickrun.csv,psycho,Lentiform Loewenfeld,3.3.14,no,늪,natural,similar-environmental,0,None,,a,,d,None,n,0.0211000442504882,,414.1253000125289,,10437.6837000018,0.0211000442504882,522.9973000241444,2,psycho,1024,2,48000,-16,experiment,999,odd,악어,natural,,105450.4371000221,20779.88489996642,20779.77789996657,,20364.446999970824,5587.741099996492,20779.229799984023,,104740.9261999419,5612.99880000297,106078.53209995665,106078.93600000534,16051.247800001876,104946.78590004332,,105554.50660001952,104733.22870000266,Extended template,0,1.3656005030497909,55,yes,1024
0,0,0.0247750077895554,0.0247750077895554,white,yes,psycho,psycho,psycho,0,uniform,0,undefined,0,n,1,0,58,1,1,0,0,0,0,,58,0,58,58,0,58,1,58,58,Mon Dec  4 22:15:17 2023,A template containing a practice and an experimental phase,yes,언어학과심리실험_B조_기말과제용심리실험.osexp,C:\Users\caphi\Downloads,no,mono,no,18,no,black,no,no,768,psycho,55,55,0,C:\Users\caphi\Downloads\quickrun.csv,psycho,Lentiform Loewenfeld,3.3.14,no,바다,natural,same phoneme,0,None,,a,,d,None,n,0.0217999331653118,,414.1253000125289,,10437.6837000018,0.0217999331653118,513.8592000585049,2,psycho,1024,2,48000,-16,experiment,999,odd,바퀴벌레,natural,,106899.93479999248,20779.88489996642,20779.77789996657,,20364.446999970824,5587.741099996492,20779.229799984023,,106189.63269994128,5612.99880000297,107518.48870003596,107518.88510002756,16051.247800001876,106395.21089999472,,107003.57289996464,106181.75560003148,Extended template,0,1.387400436215103,56,yes,1024
0,0,0.0247087803456866,0.0247087803456866,white,yes,psycho,psycho,psycho,0,uniform,0,undefined,0,a,1,0,59,1,1,0,0,0,0,,59,0,59,59,0,59,1,59,59,Mon Dec  4 22:15:17 2023,A template containing a practice and an experimental phase,yes,언어학과심리실험_B조_기말과제용심리실험.osexp,C:\Users\caphi\Downloads,no,mono,no,18,no,black,no,no,768,psycho,56,56,0,C:\Users\caphi\Downloads\quickrun.csv,psycho,Lentiform Loewenfeld,3.3.14,no,불,natural,similar-environmental,0,None,,a,,d,None,a,0.0210000434890389,,414.1253000125289,,10437.6837000018,0.0210000434890389,616.0068999743089,2,psycho,1024,2,48000,-16,experiment,999,odd,소화기,artifactual,,108341.33600001223,20779.88489996642,20779.77789996657,,20364.446999970824,5587.741099996492,20779.229799984023,,107630.07349998225,5612.99880000297,109062.36039998475,109062.76090000756,16051.247800001876,107836.60279994363,,108445.32479997724,107621.78189994302,Extended template,0,1.4084004797041416,57,yes,1024
0,0,0.0246620781173736,0.0246620781173736,white,yes,psycho,psycho,psycho,0,uniform,0,undefined,0,n,1,0,60,1,1,0,0,0,0,,60,0,60,60,0,60,1,60,60,Mon Dec  4 22:15:17 2023,A template containing a practice and an experimental phase,yes,언어학과심리실험_B조_기말과제용심리실험.osexp,C:\Users\caphi\Downloads,no,mono,no,18,no,black,no,no,768,psycho,57,57,0,C:\Users\caphi\Downloads\quickrun.csv,psycho,Lentiform Loewenfeld,3.3.14,no,장슈,non-word,non-word,0,None,,a,,d,None,n,0.0220000511035323,,414.1253000125289,,10437.6837000018,0.0220000511035323,491.9499000534415,2,psycho,1024,2,48000,-16,experiment,999,odd,다람쥐,natural,,109881.59070000984,20779.88489996642,20779.77789996657,,20364.446999970824,5587.741099996492,20779.229799984023,,109171.5436000377,5612.99880000297,110478.56459999456,110478.97679999004,16051.247800001876,109377.37110001036,,109985.520599992,109163.3587999968,Extended template,0,1.430400530807674,58,yes,1024
0,0,0.0246169570423031,0.0246169570423031,white,yes,psycho,psycho,psycho,0,uniform,0,undefined,0,n,1,0,61,1,1,0,0,0,0,,61,0,61,61,0,61,1,61,61,Mon Dec  4 22:15:17 2023,A template containing a practice and an experimental phase,yes,언어학과심리실험_B조_기말과제용심리실험.osexp,C:\Users\caphi\Downloads,no,mono,no,18,no,black,no,no,768,psycho,58,58,0,C:\Users\caphi\Downloads\quickrun.csv,psycho,Lentiform Loewenfeld,3.3.14,no,박쥐,natural,similar-environmental,0,None,,a,,d,None,n,0.0219999346882104,,414.1253000125289,,10437.6837000018,0.0219999346882104,473.119999980554,2,psycho,1024,2,48000,-16,experiment,999,odd,동굴,natural,,111300.21819996182,20779.88489996642,20779.77789996657,,20364.446999970824,5587.741099996492,20779.229799984023,,110589.47210002223,5612.99880000297,111878.47120000517,111878.8976999931,16051.247800001876,110795.13540002516,,111404.25669995602,110580.68619994448,Extended template,0,1.4524004654958844,59,yes,1024
0,0,0.0245683419052511,0.0245683419052511,white,yes,psycho,psycho,psycho,0,uniform,0,undefined,0,n,0,0,62,1,1,0,0,0,0,,62,0,62,62,0,62,1,62,62,Mon Dec  4 22:15:17 2023,A template containing a practice and an experimental phase,yes,언어학과심리실험_B조_기말과제용심리실험.osexp,C:\Users\caphi\Downloads,no,mono,no,18,no,black,no,no,768,psycho,59,59,0,C:\Users\caphi\Downloads\quickrun.csv,psycho,Lentiform Loewenfeld,3.3.14,no,물고기,natural,no-correlation,0,None,,a,,d,None,x,0.0217000488191843,,414.1253000125289,,10437.6837000018,0.0217000488191843,673.5165999270976,2,psycho,1024,2,48000,-16,experiment,999,odd,밤하늘,natural,,112700.13649994507,20779.88489996642,20779.77789996657,,20364.446999970824,5587.741099996492,20779.229799984023,,111990.17240002286,5612.99880000297,113478.57449995354,113478.990899981,16051.247800001876,112196.02439994924,,112803.89870004728,111981.67100001592,Extended template,0,1.4741005143150687,60,yes,1024
0,0,0.0245819749982386,0.0245819749982386,white,yes,psycho,psycho,psycho,0,uniform,0,undefined,0,a,1,0,63,1,1,0,0,0,0,,63,0,63,63,0,63,1,63,63,Mon Dec  4 22:15:17 2023,A template containing a practice and an experimental phase,yes,언어학과심리실험_B조_기말과제용심리실험.osexp,C:\Users\caphi\Downloads,no,mono,no,18,no,black,no,no,768,psycho,60,60,0,C:\Users\caphi\Downloads\quickrun.csv,psycho,Lentiform Loewenfeld,3.3.14,no,도미노,artifactual,same phoneme,0,None,,a,,d,None,a,0.0253999605774879,,414.1253000125289,,10437.6837000018,0.0253999605774879,1174.2311000125485,2,psycho,1024,2,48000,-16,experiment,999,odd,도서,artifactual,,114302.95489996206,20779.88489996642,20779.77789996657,,20364.446999970824,5587.741099996492,20779.229799984023,,113589.07260000706,5612.99880000297,115582.53040001728,115583.00580002832,16051.247800001876,113795.00339995138,,114407.11619996,113580.4793999996,Extended template,0,1.499500474892557,61,yes,1024
0,0,0.024520976078366,0.024520976078366,white,yes,psycho,psycho,psycho,0,uniform,0,undefined,0,a,1,0,64,1,1,0,0,0,0,,64,0,64,64,0,64,1,64,64,Mon Dec  4 22:15:17 2023,A template containing a practice and an experimental phase,yes,언어학과심리실험_B조_기말과제용심리실험.osexp,C:\Users\caphi\Downloads,no,mono,no,18,no,black,no,no,768,psycho,61,61,0,C:\Users\caphi\Downloads\quickrun.csv,psycho,Lentiform Loewenfeld,3.3.14,no,성적표,artifactual,same phoneme,0,None,,a,,d,None,a,0.0208000419661402,,414.1253000125289,,10437.6837000018,0.0208000419661402,682.5031000189483,2,psycho,1024,2,48000,-16,experiment,999,odd,성냥,artifactual,,116402.89439994376,20779.88489996642,20779.77789996657,,20364.446999970824,5587.741099996492,20779.229799984023,,115692.9617000278,5612.99880000297,117190.2468999615,117190.67749998068,16051.247800001876,115899.01359996291,,116506.69940002264,115685.35090005024,Extended template,0,1.520300516858697,62,yes,1024
0,0,0.024469848352647,0.024469848352647,white,yes,psycho,psycho,psycho,0,uniform,0,undefined,0,n,1,0,65,1,1,0,0,0,0,,65,0,65,65,0,65,1,65,65,Mon Dec  4 22:15:17 2023,A template containing a practice and an experimental phase,yes,언어학과심리실험_B조_기말과제용심리실험.osexp,C:\Users\caphi\Downloads,no,mono,no,18,no,black,no,no,768,psycho,62,62,0,C:\Users\caphi\Downloads\quickrun.csv,psycho,Lentiform Loewenfeld,3.3.14,no,호수,natural,same phoneme,0,None,,a,,d,None,n,0.0212999293580651,,414.1253000125289,,10437.6837000018,0.0212999293580651,864.9376999819651,2,psycho,1024,2,48000,-16,experiment,999,odd,호랑이,natural,,118011.69800001662,20779.88489996642,20779.77789996657,,20364.446999970824,5587.741099996492,20779.229799984023,,117301.63620004896,5612.99880000297,118982.40590002388,118982.85230004694,16051.247800001876,117507.53689999692,,118116.44150002394,117292.61350003073,Extended template,0,1.541600446216762,63,yes,1024
0,0,0.0244484454015037,0.0244484454015037,white,yes,psycho,psycho,psycho,0,uniform,0,undefined,0,a,1,0,66,1,1,0,0,0,0,,66,0,66,66,0,66,1,66,66,Mon Dec  4 22:15:17 2023,A template containing a practice and an experimental phase,yes,언어학과심리실험_B조_기말과제용심리실험.osexp,C:\Users\caphi\Downloads,no,mono,no,18,no,black,no,no,768,psycho,63,63,0,C:\Users\caphi\Downloads\quickrun.csv,psycho,Lentiform Loewenfeld,3.3.14,no,모니터,artifactual,same phoneme,0,None,,a,,d,None,a,0.023100059479475,,414.1253000125289,,10437.6837000018,0.023100059479475,554.8769999295473,2,psycho,1024,2,48000,-16,experiment,999,odd,모터,artifactual,,119818.81560001057,20779.88489996642,20779.77789996657,,20364.446999970824,5587.741099996492,20779.229799984023,,119092.6543000387,5612.99880000297,120478.74749999028,120479.19770004228,16051.247800001876,119312.6505999826,,119922.8142000502,119084.6868000226,Extended template,0,1.564700505696237,64,yes,1024
0,0,0.0244138547434256,0.0244138547434256,white,yes,psycho,psycho,psycho,0,uniform,0,undefined,0,n,1,0,67,1,1,0,0,0,0,,67,0,67,67,0,67,1,67,67,Mon Dec  4 22:15:17 2023,A template containing a practice and an experimental phase,yes,언어학과심리실험_B조_기말과제용심리실험.osexp,C:\Users\caphi\Downloads,no,mono,no,18,no,black,no,no,768,psycho,64,64,0,C:\Users\caphi\Downloads\quickrun.csv,psycho,Lentiform Loewenfeld,3.3.14,no,세금,artifactual,same phoneme,0,None,,a,,d,None,n,0.0222000526264309,,414.1253000125289,,10437.6837000018,0.0222000526264309,682.0605000248179,2,psycho,1024,2,48000,-16,experiment,999,odd,세포,natural,,121299.51159993652,20779.88489996642,20779.77789996657,,20364.446999970824,5587.741099996492,20779.229799984023,,120589.50989996085,5612.99880000297,122086.70109999366,122087.16480003204,16051.247800001876,120795.53150001448,,121403.57259998564,120581.5727999434,Extended template,0,1.586900558322668,65,yes,1024
0,0,0.0243833408493435,0.0243833408493435,white,yes,psycho,psycho,psycho,0,uniform,0,undefined,0,n,1,0,68,1,1,0,0,0,0,,68,0,68,68,0,68,1,68,68,Mon Dec  4 22:15:17 2023,A template containing a practice and an experimental phase,yes,언어학과심리실험_B조_기말과제용심리실험.osexp,C:\Users\caphi\Downloads,no,mono,no,18,no,black,no,no,768,psycho,65,65,0,C:\Users\caphi\Downloads\quickrun.csv,psycho,Lentiform Loewenfeld,3.3.14,no,경주,artifactual,no-correlation,0,None,,a,,d,None,n,0.0223999377340078,,414.1253000125289,,10437.6837000018,0.0223999377340078,477.47510008048266,2,psycho,1024,2,48000,-16,experiment,999,odd,소나무,natural,,122920.00949999785,20779.88489996642,20779.77789996657,,20364.446999970824,5587.741099996492,20779.229799984023,,122208.7717000395,5612.99880000297,123502.81299999917,123503.26220004354,16051.247800001876,122414.61890004577,,123024.0604999708,122200.01250004862,Extended template,0,1.609300496056676,66,yes,1024
0,0,0.024347767623058,0.024347767623058,white,yes,psycho,psycho,psycho,0,uniform,0,undefined,0,a,1,0,69,1,1,0,0,0,0,,69,0,69,69,0,69,1,69,69,Mon Dec  4 22:15:17 2023,A template containing a practice and an experimental phase,yes,언어학과심리실험_B조_기말과제용심리실험.osexp,C:\Users\caphi\Downloads,no,mono,no,18,no,black,no,no,768,psycho,66,66,0,C:\Users\caphi\Downloads\quickrun.csv,psycho,Lentiform Loewenfeld,3.3.14,no,학교,artifactual,inclusive,0,None,,a,,d,None,a,0.0219999346882104,,414.1253000125289,,10437.6837000018,0.0219999346882104,652.8352999594063,2,psycho,1024,2,48000,-16,experiment,999,odd,학생,artifactual,,124329.58210003562,20779.88489996642,20779.77789996657,,20364.446999970824,5587.741099996492,20779.229799984023,,123615.53029995412,5612.99880000297,125087.27120002732,125087.7424000064,16051.247800001876,123821.0072000511,,124433.46159998327,123606.85520002151,Extended template,0,1.6313004307448864,67,yes,1024
0,0,0.024298536385793,0.024298536385793,white,yes,psycho,psycho,psycho,0,uniform,0,undefined,0,x,1,0,70,1,1,0,0,0,0,,70,0,70,70,0,70,1,70,70,Mon Dec  4 22:15:17 2023,A template containing a practice and an experimental phase,yes,언어학과심리실험_B조_기말과제용심리실험.osexp,C:\Users\caphi\Downloads,no,mono,no,18,no,black,no,no,768,psycho,67,67,0,C:\Users\caphi\Downloads\quickrun.csv,psycho,Lentiform Loewenfeld,3.3.14,no,시계,artifactual,non-word,0,None,,a,,d,None,x,0.0210000434890389,,414.1253000125289,,10437.6837000018,0.0210000434890389,628.8018000777811,2,psycho,1024,2,48000,-16,experiment,999,odd,책솜,non-word,,125920.77239998616,20779.88489996642,20779.77789996657,,20364.446999970824,5587.741099996492,20779.229799984023,,125209.24440003,5612.99880000297,126654.30819999892,126654.77749996351,16051.247800001876,125415.14960001224,,126024.50159995352,125191.19369995316,Extended template,0,1.6523004742339251,68,yes,1024
0,0,0.0242565292865037,0.0242565292865037,white,yes,psycho,psycho,psycho,0,uniform,0,undefined,0,n,1,0,71,1,1,0,0,0,0,,71,0,71,71,0,71,1,71,71,Mon Dec  4 22:15:17 2023,A template containing a practice and an experimental phase,yes,언어학과심리실험_B조_기말과제용심리실험.osexp,C:\Users\caphi\Downloads,no,mono,no,18,no,black,no,no,768,psycho,68,68,0,C:\Users\caphi\Downloads\quickrun.csv,psycho,Lentiform Loewenfeld,3.3.14,no,스노우보드,artifactual,no-correlation,0,None,,a,,d,None,n,0.0214000465348362,,414.1253000125289,,10437.6837000018,0.0214000465348362,753.6581000313163,2,psycho,1024,2,48000,-16,experiment,999,odd,꽃,natural,,127476.35250003076,20779.88489996642,20779.77789996657,,20364.446999970824,5587.741099996492,20779.229799984023,,126766.9232999906,5612.99880000297,128334.83149996027,128335.29079996517,16051.247800001876,126972.51170000529,,127580.0675000064,126758.64899996668,Extended template,0,1.6737005207687616,69,yes,1024
0,0,0.0244485779798456,0.0244485779798456,white,yes,psycho,psycho,psycho,0,uniform,0,undefined,0,a,1,0,72,1,1,0,0,0,0,,72,0,72,72,0,72,1,72,72,Mon Dec  4 22:15:17 2023,A template containing a practice and an experimental phase,yes,언어학과심리실험_B조_기말과제용심리실험.osexp,C:\Users\caphi\Downloads,no,mono,no,18,no,black,no,no,768,psycho,69,69,0,C:\Users\caphi\Downloads\quickrun.csv,psycho,Lentiform Loewenfeld,3.3.14,no,플피,non-word,non-word,0,None,,a,,d,None,a,0.0376999378204345,,414.1253000125289,,10437.6837000018,0.0376999378204345,886.1495000310242,2,psycho,1024,2,48000,-16,experiment,999,odd,책상,artifactual,,129151.88779996242,20779.88489996642,20779.77789996657,,20364.446999970824,5587.741099996492,20779.229799984023,,128441.99009996372,5612.99880000297,130143.21130001916,130143.83660000747,16051.247800001876,128647.69490004984,,129255.77349995729,128433.09870001394,Extended template,0,1.7114004585891962,70,yes,1024
0,0,0.0248028237608746,0.0248028237608746,white,yes,psycho,psycho,psycho,0,uniform,0,undefined,0,a,1,0,73,1,1,0,0,0,0,,73,0,73,73,0,73,1,73,73,Mon Dec  4 22:15:17 2023,A template containing a practice and an experimental phase,yes,언어학과심리실험_B조_기말과제용심리실험.osexp,C:\Users\caphi\Downloads,no,mono,no,18,no,black,no,no,768,psycho,70,70,0,C:\Users\caphi\Downloads\quickrun.csv,psycho,Lentiform Loewenfeld,3.3.14,no,가방,artifactual,no-correlation,0,None,,a,,d,None,a,0.0496000284329056,,414.1253000125289,,10437.6837000018,0.0496000284329056,599.6598000638187,2,psycho,1024,2,48000,-16,experiment,999,odd,기차,artifactual,,130967.09689998534,20779.88489996642,20779.77789996657,,20364.446999970824,5587.741099996492,20779.229799984023,,130257.4014000129,5612.99880000297,131671.2957000127,131671.89190001227,16051.247800001876,130462.92560000438,,131069.95379994623,130249.2739999434,Extended template,0,1.761000487022102,71,yes,1024
0,0,0.0254486173313731,0.0254486173313731,white,yes,psycho,psycho,psycho,0,uniform,0,undefined,0,n,1,0,74,1,1,0,0,0,0,,74,0,74,74,0,74,1,74,74,Mon Dec  4 22:15:17 2023,A template containing a practice and an experimental phase,yes,언어학과심리실험_B조_기말과제용심리실험.osexp,C:\Users\caphi\Downloads,no,mono,no,18,no,black,no,no,768,psycho,71,71,0,C:\Users\caphi\Downloads\quickrun.csv,psycho,Lentiform Loewenfeld,3.3.14,no,호랑이,natural,same phoneme,0,None,,a,,d,None,n,0.0712999608367681,,414.1253000125289,,10437.6837000018,0.0712999608367681,521.2351999944076,2,psycho,1024,2,48000,-16,experiment,999,odd,호수,natural,,132492.13979998603,20779.88489996642,20779.77789996657,,20364.446999970824,5587.741099996492,20779.229799984023,,131783.75790000428,5612.99880000297,133118.72130003758,133119.6506000124,16051.247800001876,131988.32140001468,,132596.25820000656,131774.55380000174,Extended template,0,1.83230044785887,72,yes,1024
0,0,0.0254013751033846,0.0254013751033846,white,yes,psycho,psycho,psycho,0,uniform,0,undefined,0,a,1,0,75,1,1,0,0,0,0,,75,0,75,75,0,75,1,75,75,Mon Dec  4 22:15:17 2023,A template containing a practice and an experimental phase,yes,언어학과심리실험_B조_기말과제용심리실험.osexp,C:\Users\caphi\Downloads,no,mono,no,18,no,black,no,no,768,psycho,72,72,0,C:\Users\caphi\Downloads\quickrun.csv,psycho,Lentiform Loewenfeld,3.3.14,no,계곡,natural,no-correlation,0,None,,a,,d,None,a,0.0219999346882104,,414.1253000125289,,10437.6837000018,0.0219999346882104,547.6430000271648,2,psycho,1024,2,48000,-16,experiment,999,odd,화장실,artifactual,,133954.17399995495,20779.88489996642,20779.77789996657,,20364.446999970824,5587.741099996492,20779.229799984023,,133245.08230003994,5612.99880000297,134607.08640003577,134607.5788999442,16051.247800001876,133450.4608999705,,134058.2746999571,133235.650000046,Extended template,0,1.8543003825470803,73,yes,1024
0,0,0.0253621680737548,0.0253621680737548,white,yes,psycho,psycho,psycho,0,uniform,0,undefined,0,a,1,0,76,1,1,0,0,0,0,,76,0,76,76,0,76,1,76,76,Mon Dec  4 22:15:17 2023,A template containing a practice and an experimental phase,yes,언어학과심리실험_B조_기말과제용심리실험.osexp,C:\Users\caphi\Downloads,no,mono,no,18,no,black,no,no,768,psycho,73,73,0,C:\Users\caphi\Downloads\quickrun.csv,psycho,Lentiform Loewenfeld,3.3.14,no,시,artifactual,similar-environmental,0,None,,a,,d,None,a,0.022500054910779,,414.1253000125289,,10437.6837000018,0.022500054910779,579.2449000291526,2,psycho,1024,2,48000,-16,experiment,999,odd,소설,artifactual,,135427.44180001318,20779.88489996642,20779.77789996657,,20364.446999970824,5587.741099996492,20779.229799984023,,134718.1707000127,5612.99880000297,136111.81429994758,136112.3047999572,16051.247800001876,134923.40880003758,,135531.23560000677,134710.20960004535,Extended template,0,1.8768004374578595,74,yes,1024
0,0,0.0253120049213369,0.0253120049213369,white,yes,psycho,psycho,psycho,0,uniform,0,undefined,0,n,1,0,77,1,1,0,0,0,0,,77,0,77,77,0,77,1,77,77,Mon Dec  4 22:15:17 2023,A template containing a practice and an experimental phase,yes,언어학과심리실험_B조_기말과제용심리실험.osexp,C:\Users\caphi\Downloads,no,mono,no,18,no,black,no,no,768,psycho,74,74,0,C:\Users\caphi\Downloads\quickrun.csv,psycho,Lentiform Loewenfeld,3.3.14,no,물고기,natural,inclusive,0,None,,a,,d,None,n,0.0215999316424131,,414.1253000125289,,10437.6837000018,0.0215999316424131,560.8854000456631,2,psycho,1024,2,48000,-16,experiment,999,odd,연어,natural,,136933.41920000967,20779.88489996642,20779.77789996657,,20364.446999970824,5587.741099996492,20779.229799984023,,136223.01309998147,5612.99880000297,137599.19820004143,137599.71099998802,16051.247800001876,136428.84940002114,,137037.19099995214,136214.4267000258,Extended template,0,1.8984003691002729,75,yes,1024
0,0,0.0252697423811217,0.0252697423811217,white,yes,psycho,psycho,psycho,0,uniform,0,undefined,0,a,1,0,78,1,1,0,0,0,0,,78,0,78,78,0,78,1,78,78,Mon Dec  4 22:15:17 2023,A template containing a practice and an experimental phase,yes,언어학과심리실험_B조_기말과제용심리실험.osexp,C:\Users\caphi\Downloads,no,mono,no,18,no,black,no,no,768,psycho,75,75,0,C:\Users\caphi\Downloads\quickrun.csv,psycho,Lentiform Loewenfeld,3.3.14,no,영화,artifactual,similar-environmental,0,None,,a,,d,None,a,0.0221000518649816,,414.1253000125289,,10437.6837000018,0.0221000518649816,478.93870004918426,2,psycho,1024,2,48000,-16,experiment,999,odd,드라마,artifactual,,138422.8864000179,20779.88489996642,20779.77789996657,,20364.446999970824,5587.741099996492,20779.229799984023,,137711.71399997547,5612.99880000297,139006.88759994227,139007.42819998413,16051.247800001876,137917.8025999572,,138526.78399998695,137703.7263000384,Extended template,0,1.9205004209652543,76,yes,1024
0,0,0.0252259786349612,0.0252259786349612,white,yes,psycho,psycho,psycho,0,uniform,0,undefined,0,a,1,0,79,1,1,0,0,0,0,,79,0,79,79,0,79,1,79,79,Mon Dec  4 22:15:17 2023,A template containing a practice and an experimental phase,yes,언어학과심리실험_B조_기말과제용심리실험.osexp,C:\Users\caphi\Downloads,no,mono,no,18,no,black,no,no,768,psycho,76,76,0,C:\Users\caphi\Downloads\quickrun.csv,psycho,Lentiform Loewenfeld,3.3.14,no,모자,artifactual,no-correlation,0,None,,a,,d,None,a,0.0218999339267611,,414.1253000125289,,10437.6837000018,0.0218999339267611,665.5889000976458,2,psycho,1024,2,48000,-16,experiment,999,odd,마우스,artifactual,,139836.15830005147,20779.88489996642,20779.77789996657,,20364.446999970824,5587.741099996492,20779.229799984023,,139117.7607999416,5612.99880000297,140607.12870000862,140607.6471999986,16051.247800001876,139331.69280004222,,139940.32079994213,139108.9665000327,Extended template,0,1.9424003548920157,77,yes,1024
0,0,0.0251769282234211,0.0251769282234211,white,yes,psycho,psycho,psycho,0,uniform,0,undefined,0,a,1,0,80,1,1,0,0,0,0,,80,0,80,80,0,80,1,80,80,Mon Dec  4 22:15:17 2023,A template containing a practice and an experimental phase,yes,언어학과심리실험_B조_기말과제용심리실험.osexp,C:\Users\caphi\Downloads,no,mono,no,18,no,black,no,no,768,psycho,77,77,0,C:\Users\caphi\Downloads\quickrun.csv,psycho,Lentiform Loewenfeld,3.3.14,no,경주,artifactual,no-correlation,0,None,,a,,d,None,a,0.0214000465348362,,414.1253000125289,,10437.6837000018,0.0214000465348362,608.1004000734538,2,psycho,1024,2,48000,-16,experiment,999,odd,버스,artifactual,,141429.64959994424,20779.88489996642,20779.77789996657,,20364.446999970824,5587.741099996492,20779.229799984023,,140719.03699997347,5612.99880000297,142143.04779993836,142143.56590004172,16051.247800001876,140924.58969994914,,141533.84599997662,140710.18679998815,Extended template,0,1.963800401426852,78,yes,1024
0,0,0.0251341829241453,0.0251341829241453,white,yes,psycho,psycho,psycho,0,uniform,0,undefined,0,n,1,0,81,1,1,0,0,0,0,,81,0,81,81,0,81,1,81,81,Mon Dec  4 22:15:17 2023,A template containing a practice and an experimental phase,yes,언어학과심리실험_B조_기말과제용심리실험.osexp,C:\Users\caphi\Downloads,no,mono,no,18,no,black,no,no,768,psycho,78,78,0,C:\Users\caphi\Downloads\quickrun.csv,psycho,Lentiform Loewenfeld,3.3.14,no,소방서,artifactual,same phoneme,0,None,,a,,d,None,n,0.0218000495806336,,414.1253000125289,,10437.6837000018,0.0218000495806336,610.0653000175953,2,psycho,1024,2,48000,-16,experiment,999,odd,소나무,natural,,142964.217599947,20779.88489996642,20779.77789996657,,20364.446999970824,5587.741099996492,20779.229799984023,,142254.67239995487,5612.99880000297,143679.67909993604,143680.1865999587,16051.247800001876,142460.6322000036,,143068.4415999567,142246.85420002788,Extended template,0,1.9856004510074852,79,yes,1024
0,0,0.0251962555921636,0.0251962555921636,white,yes,psycho,psycho,psycho,0,uniform,0,undefined,0,a,1,0,82,1,1,0,0,0,0,,82,0,82,82,0,82,1,82,82,Mon Dec  4 22:15:17 2023,A template containing a practice and an experimental phase,yes,언어학과심리실험_B조_기말과제용심리실험.osexp,C:\Users\caphi\Downloads,no,mono,no,18,no,black,no,no,768,psycho,79,79,0,C:\Users\caphi\Downloads\quickrun.csv,psycho,Lentiform Loewenfeld,3.3.14,no,꽃,natural,no-correlation,0,None,,a,,d,None,a,0.0300999963656067,,414.1253000125289,,10437.6837000018,0.0300999963656067,521.1213999427855,2,psycho,1024,2,48000,-16,experiment,999,odd,경주,artifactual,,144493.05209994782,20779.88489996642,20779.77789996657,,20364.446999970824,5587.741099996492,20779.229799984023,,143782.7333000023,5612.99880000297,145119.18839998543,145119.71440003254,16051.247800001876,143988.57940000016,,144596.88399999868,143774.70299997367,Extended template,0,2.015700447373092,80,yes,1024
0,0,0.0251506219537537,0.0251506219537537,white,yes,psycho,psycho,psycho,0,uniform,0,undefined,0,x,1,0,83,1,1,0,0,0,0,,83,0,83,83,0,83,1,83,83,Mon Dec  4 22:15:17 2023,A template containing a practice and an experimental phase,yes,언어학과심리실험_B조_기말과제용심리실험.osexp,C:\Users\caphi\Downloads,no,mono,no,18,no,black,no,no,768,psycho,80,80,0,C:\Users\caphi\Downloads\quickrun.csv,psycho,Lentiform Loewenfeld,3.3.14,no,사자,natural,non-word,0,None,,a,,d,None,x,0.0214999308809638,,414.1253000125289,,10437.6837000018,0.0214999308809638,729.4395000208169,2,psycho,1024,2,48000,-16,experiment,999,odd,러스바이,non-word,,145941.8716999935,20779.88489996642,20779.77789996657,,20364.446999970824,5587.741099996492,20779.229799984023,,145232.2563000489,5612.99880000297,146776.27230004873,146776.81850001682,16051.247800001876,145438.04989999626,,146045.71029997896,145224.70110002905,Extended template,0,2.037200378254056,81,yes,1024
0,0,0.0251024441861706,0.0251024441861706,white,yes,psycho,psycho,psycho,0,uniform,0,undefined,0,n,1,0,84,1,1,0,0,0,0,,84,0,84,84,0,84,1,84,84,Mon Dec  4 22:15:17 2023,A template containing a practice and an experimental phase,yes,언어학과심리실험_B조_기말과제용심리실험.osexp,C:\Users\caphi\Downloads,no,mono,no,18,no,black,no,no,768,psycho,81,81,0,C:\Users\caphi\Downloads\quickrun.csv,psycho,Lentiform Loewenfeld,3.3.14,no,다리,artifactual,similar-environmental,0,None,,a,,d,None,n,0.0212000450119376,,414.1253000125289,,10437.6837000018,0.0212000450119376,593.9913999754936,2,psycho,1024,2,48000,-16,experiment,999,odd,강,natural,,147596.6212999774,20779.88489996642,20779.77789996657,,20364.446999970824,5587.741099996492,20779.229799984023,,146886.24649995472,5612.99880000297,148295.97269999795,148296.4970000321,16051.247800001876,147091.97119995952,,147700.65020001493,146878.2492999453,Extended template,0,2.0584004232659936,82,yes,1024
0,0,0.0250963900933962,0.0250963900933962,white,yes,psycho,psycho,psycho,0,uniform,0,undefined,0,n,0,0,85,1,1,0,0,0,0,,85,0,85,85,0,85,1,85,85,Mon Dec  4 22:15:17 2023,A template containing a practice and an experimental phase,yes,언어학과심리실험_B조_기말과제용심리실험.osexp,C:\Users\caphi\Downloads,no,mono,no,18,no,black,no,no,768,psycho,82,82,0,C:\Users\caphi\Downloads\quickrun.csv,psycho,Lentiform Loewenfeld,3.3.14,no,해마,natural,same phoneme,0,None,,a,,d,None,x,0.0245999544858932,,414.1253000125289,,10437.6837000018,0.0245999544858932,769.1780000459403,2,psycho,1024,2,48000,-16,experiment,999,odd,해질녘,natural,,149116.74910003785,20779.88489996642,20779.77789996657,,20364.446999970824,5587.741099996492,20779.229799984023,,148406.7760000471,5612.99880000297,149991.33119999897,149991.89269996714,16051.247800001876,148612.59809997864,,149221.00429993588,148397.59930002037,Extended template,0,2.083000377751887,83,yes,1024
0,0,0.025057146558538,0.025057146558538,white,yes,psycho,psycho,psycho,0,uniform,0,undefined,0,a,1,0,86,1,1,0,0,0,0,,86,0,86,86,0,86,1,86,86,Mon Dec  4 22:15:17 2023,A template containing a practice and an experimental phase,yes,언어학과심리실험_B조_기말과제용심리실험.osexp,C:\Users\caphi\Downloads,no,mono,no,18,no,black,no,no,768,psycho,83,83,0,C:\Users\caphi\Downloads\quickrun.csv,psycho,Lentiform Loewenfeld,3.3.14,no,해변,natural,similar-environmental,0,None,,a,,d,None,a,0.0217999331653118,,414.1253000125289,,10437.6837000018,0.0217999331653118,680.2184999687597,2,psycho,1024,2,48000,-16,experiment,999,odd,파라솔,artifactual,,150814.18730004225,20779.88489996642,20779.77789996657,,20364.446999970824,5587.741099996492,20779.229799984023,,150103.27610000968,5612.99880000297,151599.94750004262,151600.54090002086,16051.247800001876,150308.8428999763,,150918.4215000132,150095.20500001963,Extended template,0,2.1048003109171987,84,yes,1024
0,0,0.0250117675236919,0.0250117675236919,white,yes,psycho,psycho,psycho,0,uniform,0,undefined,0,a,1,0,87,1,1,0,0,0,0,,87,0,87,87,0,87,1,87,87,Mon Dec  4 22:15:17 2023,A template containing a practice and an experimental phase,yes,언어학과심리실험_B조_기말과제용심리실험.osexp,C:\Users\caphi\Downloads,no,mono,no,18,no,black,no,no,768,psycho,84,84,0,C:\Users\caphi\Downloads\quickrun.csv,psycho,Lentiform Loewenfeld,3.3.14,no,과일,natural,no-correlation,0,None,,a,,d,None,a,0.0211999285966157,,414.1253000125289,,10437.6837000018,0.0211999285966157,601.1147000826895,2,psycho,1024,2,48000,-16,experiment,999,odd,가방,artifactual,,152421.1365999654,20779.88489996642,20779.77789996657,,20364.446999970824,5587.741099996492,20779.229799984023,,151710.52550000604,5612.99880000297,153127.37160001416,153127.99429998267,16051.247800001876,151916.2934999913,,152525.06629994605,151702.01899996027,Extended template,0,2.1260002395138144,85,yes,1024
0,0,0.0249779090112031,0.0249779090112031,white,yes,psycho,psycho,psycho,0,uniform,0,undefined,0,n,1,0,88,1,1,0,0,0,0,,88,0,88,88,0,88,1,88,88,Mon Dec  4 22:15:17 2023,A template containing a practice and an experimental phase,yes,언어학과심리실험_B조_기말과제용심리실험.osexp,C:\Users\caphi\Downloads,no,mono,no,18,no,black,no,no,768,psycho,85,85,0,C:\Users\caphi\Downloads\quickrun.csv,psycho,Lentiform Loewenfeld,3.3.14,no,언덕,natural,no-correlation,0,None,,a,,d,None,n,0.0220999354496598,,414.1253000125289,,10437.6837000018,0.0220999354496598,637.5312999589369,2,psycho,1024,2,48000,-16,experiment,999,odd,고양이,natural,,153953.1892000232,20779.88489996642,20779.77789996657,,20364.446999970824,5587.741099996492,20779.229799984023,,153242.42280004546,5612.99880000297,154696.05150003918,154696.64350000676,16051.247800001876,153447.9253999889,,154057.12200002745,153232.97859996092,Extended template,0,2.1481001749634743,86,yes,1024
0,0,0.024942529987244,0.024942529987244,white,yes,psycho,psycho,psycho,0,uniform,0,undefined,0,n,0,0,89,1,1,0,0,0,0,,89,0,89,89,0,89,1,89,89,Mon Dec  4 22:15:17 2023,A template containing a practice and an experimental phase,yes,언어학과심리실험_B조_기말과제용심리실험.osexp,C:\Users\caphi\Downloads,no,mono,no,18,no,black,no,no,768,psycho,86,86,0,C:\Users\caphi\Downloads\quickrun.csv,psycho,Lentiform Loewenfeld,3.3.14,no,달력,artifactual,same phoneme,0,None,,a,,d,None,a,0.0218999339267611,,414.1253000125289,,10437.6837000018,0.0218999339267611,468.1031999643892,2,psycho,1024,2,48000,-16,experiment,999,odd,달,natural,,155514.1125000082,20779.88489996642,20779.77789996657,,20364.446999970824,5587.741099996492,20779.229799984023,,154804.883099976,5612.99880000297,156087.6350000035,156088.20300002117,16051.247800001876,155010.66409994382,,155618.18770004902,154796.75149999093,Extended template,0,2.1700001088902354,87,yes,1024
0,0,0.0248965926320207,0.0248965926320207,white,yes,psycho,psycho,psycho,0,uniform,0,undefined,0,a,1,0,90,1,1,0,0,0,0,,90,0,90,90,0,90,1,90,90,Mon Dec  4 22:15:17 2023,A template containing a practice and an experimental phase,yes,언어학과심리실험_B조_기말과제용심리실험.osexp,C:\Users\caphi\Downloads,no,mono,no,18,no,black,no,no,768,psycho,87,87,0,C:\Users\caphi\Downloads\quickrun.csv,psycho,Lentiform Loewenfeld,3.3.14,no,눈,natural,similar-environmental,0,None,,a,,d,None,a,0.0209000427275896,,414.1253000125289,,10437.6837000018,0.0209000427275896,560.6715000467375,2,psycho,1024,2,48000,-16,experiment,999,odd,스키,artifactual,,156905.01089999452,20779.88489996642,20779.77789996657,,20364.446999970824,5587.741099996492,20779.229799984023,,156194.3992000306,5612.99880000297,157575.82779997028,157576.3853000244,16051.247800001876,156400.49190004356,,157013.95349996164,156185.76130003203,Extended template,0,2.190900151617825,88,yes,1024
0,0,0.0248685403297958,0.0248685403297958,white,yes,psycho,psycho,psycho,0,uniform,0,undefined,0,n,1,0,91,1,1,0,0,0,0,,91,0,91,91,0,91,1,91,91,Mon Dec  4 22:15:17 2023,A template containing a practice and an experimental phase,yes,언어학과심리실험_B조_기말과제용심리실험.osexp,C:\Users\caphi\Downloads,no,mono,no,18,no,black,no,no,768,psycho,88,88,0,C:\Users\caphi\Downloads\quickrun.csv,psycho,Lentiform Loewenfeld,3.3.14,no,얼음,natural,no-correlation,0,None,,a,,d,None,n,0.0223999377340078,,414.1253000125289,,10437.6837000018,0.0223999377340078,846.8938999576494,2,psycho,1024,2,48000,-16,experiment,999,odd,돌,natural,,158399.62020004168,20779.88489996642,20779.77789996657,,20364.446999970824,5587.741099996492,20779.229799984023,,157689.3578999443,5612.99880000297,159351.82620002888,159352.41619998123,16051.247800001876,157894.81129997876,,158503.68389999494,157680.02029997297,Extended template,0,2.213300089351833,89,yes,1024
0,0,0.0248455558903515,0.0248455558903515,white,yes,psycho,psycho,psycho,0,uniform,0,undefined,0,n,1,0,92,1,1,0,0,0,0,,92,0,92,92,0,92,1,92,92,Mon Dec  4 22:15:17 2023,A template containing a practice and an experimental phase,yes,언어학과심리실험_B조_기말과제용심리실험.osexp,C:\Users\caphi\Downloads,no,mono,no,18,no,black,no,no,768,psycho,89,89,0,C:\Users\caphi\Downloads\quickrun.csv,psycho,Lentiform Loewenfeld,3.3.14,no,태양계,natural,inclusive,0,None,,a,,d,None,n,0.0227999407798051,,414.1253000125289,,10437.6837000018,0.0227999407798051,624.1421999875456,2,psycho,1024,2,48000,-16,experiment,999,odd,목성,natural,,160173.78449998796,20779.88489996642,20779.77789996657,,20364.446999970824,5587.741099996492,20779.229799984023,,159463.18670001347,5612.99880000297,160903.65430002566,160904.23290000763,16051.247800001876,159669.02679996565,,160278.23469997384,159454.83199995942,Extended template,0,2.236100030131638,90,yes,1024
0,0,0.0248142866069798,0.0248142866069798,white,yes,psycho,psycho,psycho,0,uniform,0,undefined,0,n,1,0,93,1,1,0,0,0,0,,93,0,93,93,0,93,1,93,93,Mon Dec  4 22:15:17 2023,A template containing a practice and an experimental phase,yes,언어학과심리실험_B조_기말과제용심리실험.osexp,C:\Users\caphi\Downloads,no,mono,no,18,no,black,no,no,768,psycho,90,90,0,C:\Users\caphi\Downloads\quickrun.csv,psycho,Lentiform Loewenfeld,3.3.14,no,곡물,natural,inclusive,0,None,,a,,d,None,n,0.0220000511035323,,414.1253000125289,,10437.6837000018,0.0220000511035323,618.5195000143722,2,psycho,1024,2,48000,-16,experiment,999,odd,밀,natural,,161724.4539000094,20779.88489996642,20779.77789996657,,20364.446999970824,5587.741099996492,20779.229799984023,,161014.5451000426,5612.99880000297,162447.89229996968,162448.46909993794,16051.247800001876,161220.1624000445,,161828.17350002006,161005.4670999525,Extended template,0,2.2581000812351704,91,yes,1024
0,0,0.0247836958252541,0.0247836958252541,white,yes,psycho,psycho,psycho,0,uniform,0,undefined,0,n,0,0,94,1,1,0,0,0,0,,94,0,94,94,0,94,1,94,94,Mon Dec  4 22:15:17 2023,A template containing a practice and an experimental phase,yes,언어학과심리실험_B조_기말과제용심리실험.osexp,C:\Users\caphi\Downloads,no,mono,no,18,no,black,no,no,768,psycho,91,91,0,C:\Users\caphi\Downloads\quickrun.csv,psycho,Lentiform Loewenfeld,3.3.14,no,바닥,artifactual,same phoneme,0,None,,a,,d,None,a,0.0219999346882104,,414.1253000125289,,10437.6837000018,0.0219999346882104,487.0562000432983,2,psycho,1024,2,48000,-16,experiment,999,odd,바다,natural,,163303.9658999769,20779.88489996642,20779.77789996657,,20364.446999970824,5587.741099996492,20779.229799984023,,162584.14779999293,5612.99880000297,163896.58910001162,163897.17559993733,16051.247800001876,162800.37289997563,,163408.37149997242,162557.8424000414,Extended template,0,2.280100015923381,92,yes,1024
0,0,0.0247569899925942,0.0247569899925942,white,yes,psycho,psycho,psycho,0,uniform,0,undefined,0,n,1,0,95,1,1,0,0,0,0,,95,0,95,95,0,95,1,95,95,Mon Dec  4 22:15:17 2023,A template containing a practice and an experimental phase,yes,언어학과심리실험_B조_기말과제용심리실험.osexp,C:\Users\caphi\Downloads,no,mono,no,18,no,black,no,no,768,psycho,92,92,0,C:\Users\caphi\Downloads\quickrun.csv,psycho,Lentiform Loewenfeld,3.3.14,no,해질녘,natural,same phoneme,0,None,,a,,d,None,n,0.0223000533878803,,414.1253000125289,,10437.6837000018,0.0223000533878803,501.233599963598,2,psycho,1024,2,48000,-16,experiment,999,odd,해마,natural,,164720.53249995224,20779.88489996642,20779.77789996657,,20364.446999970824,5587.741099996492,20779.229799984023,,164010.0015000207,5612.99880000297,165327.7655999409,165328.35339999292,16051.247800001876,164215.93149995897,,164825.23249997757,164001.55609997455,Extended template,0,2.302400069311261,93,yes,1024
0,0,0.0247893622145056,0.0247893622145056,white,yes,psycho,psycho,psycho,0,uniform,0,undefined,0,a,1,0,96,1,1,0,0,0,0,,96,0,96,96,0,96,1,96,96,Mon Dec  4 22:15:17 2023,A template containing a practice and an experimental phase,yes,언어학과심리실험_B조_기말과제용심리실험.osexp,C:\Users\caphi\Downloads,no,mono,no,18,no,black,no,no,768,psycho,93,93,0,C:\Users\caphi\Downloads\quickrun.csv,psycho,Lentiform Loewenfeld,3.3.14,no,소나무,natural,same phoneme,0,None,,a,,d,None,a,0.027799978852272,,414.1253000125289,,10437.6837000018,0.027799978852272,589.6826999960467,2,psycho,1024,2,48000,-16,experiment,999,odd,소방서,artifactual,,166151.9954999676,20779.88489996642,20779.77789996657,,20364.446999970824,5587.741099996492,20779.229799984023,,165441.11150002573,5612.99880000297,166848.01179997157,166848.654899979,16051.247800001876,165647.7761999704,,166256.8792999955,165431.95849994663,Extended template,0,2.330200048163533,94,yes,1024
0,0,0.024759999819492,0.024759999819492,white,yes,psycho,psycho,psycho,0,uniform,0,undefined,0,a,1,0,97,1,1,0,0,0,0,,97,0,97,97,0,97,1,97,97,Mon Dec  4 22:15:17 2023,A template containing a practice and an experimental phase,yes,언어학과심리실험_B조_기말과제용심리실험.osexp,C:\Users\caphi\Downloads,no,mono,no,18,no,black,no,no,768,psycho,94,94,0,C:\Users\caphi\Downloads\quickrun.csv,psycho,Lentiform Loewenfeld,3.3.14,no,옷,artifactual,inclusive,0,None,,a,,d,None,a,0.0219999346882104,,414.1253000125289,,10437.6837000018,0.0219999346882104,670.9362999536097,2,psycho,1024,2,48000,-16,experiment,999,odd,코트,artifactual,,167663.60279999208,20779.88489996642,20779.77789996657,,20364.446999970824,5587.741099996492,20779.229799984023,,166954.19489999767,5612.99880000297,168439.88540000282,168440.50449994393,16051.247800001876,167159.56339996774,,167767.72260002326,166945.31009998173,Extended template,0,2.352199982851744,95,yes,1024
0,0,0.0247187502585196,0.0247187502585196,white,yes,psycho,psycho,psycho,0,uniform,0,undefined,0,a,1,0,98,1,1,0,0,0,0,,98,0,98,98,0,98,1,98,98,Mon Dec  4 22:15:17 2023,A template containing a practice and an experimental phase,yes,언어학과심리실험_B조_기말과제용심리실험.osexp,C:\Users\caphi\Downloads,no,mono,no,18,no,black,no,no,768,psycho,95,95,0,C:\Users\caphi\Downloads\quickrun.csv,psycho,Lentiform Loewenfeld,3.3.14,no,화분,artifactual,no-correlation,0,None,,a,,d,None,a,0.0208000419661402,,414.1253000125289,,10437.6837000018,0.0208000419661402,950.5472999298944,2,psycho,1024,2,48000,-16,experiment,999,odd,신발,artifactual,,169264.13929997943,20779.88489996642,20779.77789996657,,20364.446999970824,5587.741099996492,20779.229799984023,,168552.3568999488,5612.99880000297,170320.27789996937,170320.91160002165,16051.247800001876,168757.88409996312,,169368.52040002125,168543.9016999444,Extended template,0,2.373000024817884,96,yes,1024
0,0,0.0246804130753291,0.0246804130753291,white,yes,psycho,psycho,psycho,0,uniform,0,undefined,0,x,1,0,99,1,1,0,0,0,0,,99,0,99,99,0,99,1,99,99,Mon Dec  4 22:15:17 2023,A template containing a practice and an experimental phase,yes,언어학과심리실험_B조_기말과제용심리실험.osexp,C:\Users\caphi\Downloads,no,mono,no,18,no,black,no,no,768,psycho,96,96,0,C:\Users\caphi\Downloads\quickrun.csv,psycho,Lentiform Loewenfeld,3.3.14,no,벨트,artifactual,non-word,0,None,,a,,d,None,x,0.0210000434890389,,414.1253000125289,,10437.6837000018,0.0210000434890389,597.8462999919429,2,psycho,1024,2,48000,-16,experiment,999,odd,진웬,non-word,,171145.48850001302,20779.88489996642,20779.77789996657,,20364.446999970824,5587.741099996492,20779.229799984023,,170431.86679994687,5612.99880000297,171848.56069996022,171849.16730003897,16051.247800001876,170641.36939996388,,171249.48640004732,170423.74819994438,Extended template,0,2.394000068306923,97,yes,1024
0,0,0.0246438786995654,0.0246438786995654,white,yes,psycho,psycho,psycho,0,uniform,0,undefined,0,n,1,0,100,1,1,0,0,0,0,,100,0,100,100,0,100,1,100,100,Mon Dec  4 22:15:17 2023,A template containing a practice and an experimental phase,yes,언어학과심리실험_B조_기말과제용심리실험.osexp,C:\Users\caphi\Downloads,no,mono,no,18,no,black,no,no,768,psycho,97,97,0,C:\Users\caphi\Downloads\quickrun.csv,psycho,Lentiform Loewenfeld,3.3.14,no,모래,natural,similar-environmental,0,None,,a,,d,None,n,0.0211000442504882,,414.1253000125289,,10437.6837000018,0.0211000442504882,619.2951999837533,2,psycho,1024,2,48000,-16,experiment,999,odd,자갈,natural,,172668.11199998483,20779.88489996642,20779.77789996657,,20364.446999970824,5587.741099996492,20779.229799984023,,171958.12259998638,5612.99880000297,173392.62329996563,173393.23249994777,16051.247800001876,172163.51049998775,,172772.11250003893,171949.92569996975,Extended template,0,2.415100112557411,98,yes,1024
0,0,0.0247262639341631,0.0247262639341631,white,yes,psycho,psycho,psycho,0,uniform,0,undefined,0,n,1,0,101,1,1,0,0,0,0,,101,0,101,101,0,101,1,101,101,Mon Dec  4 22:15:17 2023,A template containing a practice and an experimental phase,yes,언어학과심리실험_B조_기말과제용심리실험.osexp,C:\Users\caphi\Downloads,no,mono,no,18,no,black,no,no,768,psycho,98,98,0,C:\Users\caphi\Downloads\quickrun.csv,psycho,Lentiform Loewenfeld,3.3.14,no,의자,artifactual,no-correlation,0,None,,a,,d,None,n,0.0328000169247388,,414.1253000125289,,10437.6837000018,0.0328000169247388,623.403999954462,2,psycho,1024,2,48000,-16,experiment,999,odd,행성,natural,,174214.51560000423,20779.88489996642,20779.77789996657,,20364.446999970824,5587.741099996492,20779.229799984023,,173503.69120005053,5612.99880000297,174944.23559994902,174945.02750004176,16051.247800001876,173709.41859995946,,174319.47170000058,173494.75189996883,Extended template,0,2.44790012948215,99,yes,1024
0,0,0.0246910017449408,0.0246910017449408,white,yes,psycho,psycho,psycho,0,uniform,0,undefined,0,a,1,0,102,1,1,0,0,0,0,,102,0,102,102,0,102,1,102,102,Mon Dec  4 22:15:17 2023,A template containing a practice and an experimental phase,yes,언어학과심리실험_B조_기말과제용심리실험.osexp,C:\Users\caphi\Downloads,no,mono,no,18,no,black,no,no,768,psycho,99,99,0,C:\Users\caphi\Downloads\quickrun.csv,psycho,Lentiform Loewenfeld,3.3.14,no,꽃,natural,no-correlation,0,None,,a,,d,None,a,0.0212000450119376,,414.1253000125289,,10437.6837000018,0.0212000450119376,842.932700063102,2,psycho,1024,2,48000,-16,experiment,999,odd,풍차,artifactual,,175764.47449997067,20779.88489996642,20779.77789996657,,20364.446999970824,5587.741099996492,20779.229799984023,,175054.40759996418,5612.99880000297,176712.80280000065,176713.43150001485,16051.247800001876,175259.76080005057,,175868.2502999436,175046.48270003963,Extended template,0,2.469100174494088,100,yes,1024
0,0,0.0246633685627343,0.0246633685627343,white,yes,psycho,psycho,psycho,0,uniform,0,undefined,0,a,1,0,103,1,1,0,0,0,0,,103,0,103,103,0,103,1,103,103,Mon Dec  4 22:15:17 2023,A template containing a practice and an experimental phase,yes,언어학과심리실험_B조_기말과제용심리실험.osexp,C:\Users\caphi\Downloads,no,mono,no,18,no,black,no,no,768,psycho,100,100,0,C:\Users\caphi\Downloads\quickrun.csv,psycho,Lentiform Loewenfeld,3.3.14,no,성냥,artifactual,same phoneme,0,None,,a,,d,None,a,0.0219000503420829,,414.1253000125289,,10437.6837000018,0.0219000503420829,472.06269996240735,2,psycho,1024,2,48000,-16,experiment,999,odd,성적표,artifactual,,177534.2154999962,20779.88489996642,20779.77789996657,,20364.446999970824,5587.741099996492,20779.229799984023,,176824.59890004247,5612.99880000297,178112.32359998394,178112.9660999868,16051.247800001876,177030.15729994513,,177639.00740002282,176815.17429999076,Extended template,0,2.4910002248361707,101,yes,1024
0,0,0.0246343152670591,0.0246343152670591,white,yes,psycho,psycho,psycho,0,uniform,0,undefined,0,a,1,0,104,1,1,0,0,0,0,,104,0,104,104,0,104,1,104,104,Mon Dec  4 22:15:17 2023,A template containing a practice and an experimental phase,yes,언어학과심리실험_B조_기말과제용심리실험.osexp,C:\Users\caphi\Downloads,no,mono,no,18,no,black,no,no,768,psycho,101,101,0,C:\Users\caphi\Downloads\quickrun.csv,psycho,Lentiform Loewenfeld,3.3.14,no,호수,natural,no-correlation,0,None,,a,,d,None,a,0.0216999324038624,,414.1253000125289,,10437.6837000018,0.0216999324038624,506.52489997446537,2,psycho,1024,2,48000,-16,experiment,999,odd,대학교,artifactual,,178932.6714000199,20779.88489996642,20779.77789996657,,20364.446999970824,5587.741099996492,20779.229799984023,,178222.56040002685,5612.99880000297,179544.4021000294,179545.03239993937,16051.247800001876,178428.64549998194,,179036.55560000334,178214.35509994626,Extended template,0,2.512700157240033,102,yes,1024
0,0,0.0246067981244724,0.0246067981244724,white,yes,psycho,psycho,psycho,0,uniform,0,undefined,0,a,1,0,105,1,1,0,0,0,0,,105,0,105,105,0,105,1,105,105,Mon Dec  4 22:15:17 2023,A template containing a practice and an experimental phase,yes,언어학과심리실험_B조_기말과제용심리실험.osexp,C:\Users\caphi\Downloads,no,mono,no,18,no,black,no,no,768,psycho,102,102,0,C:\Users\caphi\Downloads\quickrun.csv,psycho,Lentiform Loewenfeld,3.3.14,no,선설수,non-word,non-word,0,None,,a,,d,None,a,0.0218000495806336,,414.1253000125289,,10437.6837000018,0.0218000495806336,633.259000023827,2,psycho,1024,2,48000,-16,experiment,999,odd,시계,artifactual,,180365.81059999295,20779.88489996642,20779.77789996657,,20364.446999970824,5587.741099996492,20779.229799984023,,179655.77019995544,5612.99880000297,181104.28269999105,181104.9209999619,16051.247800001876,179862.02430003323,,180469.7597000049,179647.05160004087,Extended template,0,2.534500206820667,103,yes,1024
0,0,0.0245682716083068,0.0245682716083068,white,yes,psycho,psycho,psycho,0,uniform,0,undefined,0,a,1,0,106,1,1,0,0,0,0,,106,0,106,106,0,106,1,106,106,Mon Dec  4 22:15:17 2023,A template containing a practice and an experimental phase,yes,언어학과심리실험_B조_기말과제용심리실험.osexp,C:\Users\caphi\Downloads,no,mono,no,18,no,black,no,no,768,psycho,103,103,0,C:\Users\caphi\Downloads\quickrun.csv,psycho,Lentiform Loewenfeld,3.3.14,no,산,natural,similar-environmental,0,None,,a,,d,None,a,0.0206000404432415,,414.1253000125289,,10437.6837000018,0.0206000404432415,537.5256000552326,2,psycho,1024,2,48000,-16,experiment,999,odd,오두막,artifactual,,181924.94810000065,20779.88489996642,20779.77789996657,,20364.446999970824,5587.741099996492,20779.229799984023,,181214.71740002744,5612.99880000297,182568.3944999473,182569.02749999423,16051.247800001876,181420.24460004177,,182029.59399996325,181205.72610001545,Extended template,0,2.5551002472639084,104,yes,1024
