acc,accuracy,average_response_time,avg_rt,background,bidi,canvas_backend,clock_backend,color_backend,compensation,coordinates,correct,correct_instructions,correct_keyboard_response,correct_response,correct_target,count_about_this_template,count_blank,count_block_loop,count_block_sequence,count_end_of_experiment,count_end_of_practice,count_experiment,count_experimental_loop,count_feedback,count_fixation,count_instructions,count_keyboard_response,count_logger,count_practice_loop,count_prime,count_reset_feedback,count_target,count_trial_sequence,datetime,description,disable_garbage_collection,experiment_file,experiment_path,font_bold,font_family,font_italic,font_size,font_underline,foreground,form_clicks,fullscreen,height,keyboard_backend,live_row,live_row_block_loop,live_row_practice_loop,logfile,mouse_backend,opensesame_codename,opensesame_version,practice,prime,prime_condition,relation,repeat_cycle,response,response_end_of_experiment,response_end_of_practice,response_feedback,response_instructions,response_keyboard_response,response_target,response_time,response_time_end_of_experiment,response_time_end_of_practice,response_time_feedback,response_time_instructions,response_time_keyboard_response,response_time_target,round_decimals,sampler_backend,sound_buf_size,sound_channels,sound_freq,sound_sample_size,start,subject_nr,subject_parity,target,target_condition,time_about_this_template,time_blank,time_block_loop,time_block_sequence,time_end_of_experiment,time_end_of_practice,time_experiment,time_experimental_loop,time_feedback,time_fixation,time_instructions,time_keyboard_response,time_logger,time_practice_loop,time_prime,time_reset_feedback,time_target,time_trial_sequence,title,total_correct,total_response_time,total_responses,uniform_coordinates,width
0,0,0.0222999369725585,0.0222999369725585,white,yes,psycho,psycho,psycho,0,uniform,0,undefined,0,n,1,0,0,0,0,0,0,0,0,,0,0,0,0,0,0,0,0,0,Tue Dec  5 10:22:00 2023,A template containing a practice and an experimental phase,yes,언어학과심리실험_B조_기말과제용심리실험.osexp,C:\Users\caphi\Downloads,no,mono,no,18,no,black,no,no,768,psycho,0,0,0,C:\Users\caphi\Downloads\quickrun.csv,psycho,Lentiform Loewenfeld,3.3.14,yes,해마,natural,same phoneme,0,None,,,,s,None,n,0.0222999369725585,,,,576.4024000382051,0.0222999369725585,669.4099000887945,2,psycho,1024,2,48000,-16,experiment,999,odd,해질녘,natural,,13039.906700025313,12184.6729000099,12184.51539997477,,,11573.952300008386,,,12306.530399946496,11606.920299935156,13835.877300007269,13835.992899956182,12183.994699968023,12532.474800013006,,13165.812899940647,12283.97699992638,Extended template,0,0.0222999369725585,1,yes,1024
0,0,0.0227499986067414,0.0227499986067414,white,yes,psycho,psycho,psycho,0,uniform,0,undefined,0,n,0,0,1,0,0,0,0,0,0,,1,0,1,1,0,1,0,1,1,Tue Dec  5 10:22:00 2023,A template containing a practice and an experimental phase,yes,언어학과심리실험_B조_기말과제용심리실험.osexp,C:\Users\caphi\Downloads,no,mono,no,18,no,black,no,no,768,psycho,1,1,0,C:\Users\caphi\Downloads\quickrun.csv,psycho,Lentiform Loewenfeld,3.3.14,yes,전등,artifactual,no-correlation,0,None,,,,s,None,a,0.0232000602409243,,,,576.4024000382051,0.0232000602409243,433.9953999733552,2,psycho,1024,2,48000,-16,experiment,999,odd,소,natural,,14751.069099991582,12184.6729000099,12184.51539997477,,,11573.952300008386,,,13974.083099979907,11606.920299935156,15292.157599935308,15292.285199975597,12183.994699968023,14206.60609996412,,14857.268400024624,13954.81749996543,Extended template,0,0.0454999972134828,2,yes,1024
0,0,0.0229333139335115,0.0229333139335115,white,yes,psycho,psycho,psycho,0,uniform,0,undefined,0,n,0,0,2,0,0,0,0,0,0,,2,0,2,2,0,2,0,2,2,Tue Dec  5 10:22:00 2023,A template containing a practice and an experimental phase,yes,언어학과심리실험_B조_기말과제용심리실험.osexp,C:\Users\caphi\Downloads,no,mono,no,18,no,black,no,no,768,psycho,2,2,0,C:\Users\caphi\Downloads\quickrun.csv,psycho,Lentiform Loewenfeld,3.3.14,yes,패딩,artifactual,similar-environmental,0,None,,,,s,None,x,0.0232999445870518,,,,576.4024000382051,0.0232999445870518,311.3061999902129,2,psycho,1024,2,48000,-16,experiment,999,odd,겨울,natural,,16200.827799970284,12184.6729000099,12184.51539997477,,,11573.952300008386,,,15427.602999960072,11606.920299935156,16619.478299980983,16619.607899920084,12183.994699968023,15657.11479994934,,16307.290100026876,15409.956999938004,Extended template,0,0.0687999418005347,3,yes,1024
0,0,0.0226999400183558,0.0226999400183558,white,yes,psycho,psycho,psycho,0,uniform,0,undefined,0,a,1,0,3,1,1,0,0,0,0,,3,0,3,3,0,3,1,3,3,Tue Dec  5 10:22:00 2023,A template containing a practice and an experimental phase,yes,언어학과심리실험_B조_기말과제용심리실험.osexp,C:\Users\caphi\Downloads,no,mono,no,18,no,black,no,no,768,psycho,0,0,0,C:\Users\caphi\Downloads\quickrun.csv,psycho,Lentiform Loewenfeld,3.3.14,no,성적표,artifactual,same phoneme,0,None,,x,,s,None,a,0.0226999400183558,,714.4634999567643,,576.4024000382051,0.0226999400183558,677.6717999018729,2,psycho,1024,2,48000,-16,experiment,999,odd,성냥,artifactual,,18289.8771999171,17501.452299999073,17501.336699933745,,16785.595200024545,11573.952300008386,17500.788199948147,,17556.716199964285,11606.920299935156,19095.340900006704,19095.464500016533,12183.994699968023,17783.560800016858,,18417.00050001964,17540.50190001726,Extended template,0,0.0226999400183558,1,yes,1024
0,0,0.0272499746643006,0.0272499746643006,white,yes,psycho,psycho,psycho,0,uniform,0,undefined,0,n,1,0,4,1,1,0,0,0,0,,4,0,4,4,0,4,1,4,4,Tue Dec  5 10:22:00 2023,A template containing a practice and an experimental phase,yes,언어학과심리실험_B조_기말과제용심리실험.osexp,C:\Users\caphi\Downloads,no,mono,no,18,no,black,no,no,768,psycho,1,1,0,C:\Users\caphi\Downloads\quickrun.csv,psycho,Lentiform Loewenfeld,3.3.14,no,풍차,artifactual,no-correlation,0,None,,x,,s,None,n,0.0318000093102455,,714.4634999567643,,576.4024000382051,0.0318000093102455,699.7948000207543,2,psycho,1024,2,48000,-16,experiment,999,odd,흙,natural,,19973.430900019597,17501.452299999073,17501.336699933745,,16785.595200024545,11573.952300008386,17500.788199948147,,19226.60349996295,11606.920299935156,20800.97689991817,20801.12169997301,12183.994699968023,19458.0019999994,,20100.37449991796,19201.46869996097,Extended template,0,0.0544999493286013,2,yes,1024
0,0,0.0251999590545892,0.0251999590545892,white,yes,psycho,psycho,psycho,0,uniform,0,undefined,0,n,1,0,5,1,1,0,0,0,0,,5,0,5,5,0,5,1,5,5,Tue Dec  5 10:22:00 2023,A template containing a practice and an experimental phase,yes,언어학과심리실험_B조_기말과제용심리실험.osexp,C:\Users\caphi\Downloads,no,mono,no,18,no,black,no,no,768,psycho,2,2,0,C:\Users\caphi\Downloads\quickrun.csv,psycho,Lentiform Loewenfeld,3.3.14,no,경주,artifactual,no-correlation,0,None,,x,,s,None,n,0.0210999278351664,,714.4634999567643,,576.4024000382051,0.0210999278351664,804.3723000446334,2,psycho,1024,2,48000,-16,experiment,999,odd,소나무,natural,,21667.280899942853,17501.452299999073,17501.336699933745,,16785.595200024545,11573.952300008386,17500.788199948147,,20926.72989994753,11606.920299935156,22596.01580002345,22596.159699955024,12183.994699968023,21139.978099963628,,21790.99339991808,20913.500600028783,Extended template,0,0.0755998771637678,3,yes,1024
0,0,0.0244499824475497,0.0244499824475497,white,yes,psycho,psycho,psycho,0,uniform,0,undefined,0,a,1,0,6,1,1,0,0,0,0,,6,0,6,6,0,6,1,6,6,Tue Dec  5 10:22:00 2023,A template containing a practice and an experimental phase,yes,언어학과심리실험_B조_기말과제용심리실험.osexp,C:\Users\caphi\Downloads,no,mono,no,18,no,black,no,no,768,psycho,3,3,0,C:\Users\caphi\Downloads\quickrun.csv,psycho,Lentiform Loewenfeld,3.3.14,no,눈,natural,similar-environmental,0,None,,x,,s,None,a,0.0222000526264309,,714.4634999567643,,576.4024000382051,0.0222000526264309,655.1181999966502,2,psycho,1024,2,48000,-16,experiment,999,odd,스키,artifactual,,23482.470999937505,17501.452299999073,17501.336699933745,,16785.595200024545,11573.952300008386,17500.788199948147,,22726.788999978453,11606.920299935156,24245.559999952093,24245.695099933077,12183.994699968023,22957.16109999921,,23589.7620000178,22706.894399947487,Extended template,0,0.0977999297901988,4,yes,1024
0,0,0.0249200034886598,0.0249200034886598,white,yes,psycho,psycho,psycho,0,uniform,0,undefined,0,a,1,0,7,1,1,0,0,0,0,,7,0,7,7,0,7,1,7,7,Tue Dec  5 10:22:00 2023,A template containing a practice and an experimental phase,yes,언어학과심리실험_B조_기말과제용심리실험.osexp,C:\Users\caphi\Downloads,no,mono,no,18,no,black,no,no,768,psycho,4,4,0,C:\Users\caphi\Downloads\quickrun.csv,psycho,Lentiform Loewenfeld,3.3.14,no,소나무,natural,same phoneme,0,None,,x,,s,None,a,0.0268000876531004,,714.4634999567643,,576.4024000382051,0.0268000876531004,733.7408000603318,2,psycho,1024,2,48000,-16,experiment,999,odd,소방서,artifactual,,25134.36179992277,17501.452299999073,17501.336699933745,,16785.595200024545,11573.952300008386,17500.788199948147,,24386.476399959065,11606.920299935156,25991.109099937603,25991.27999995835,12183.994699968023,24606.74229997676,,25256.670199916694,24354.404199984856,Extended template,0,0.1246000174432993,5,yes,1024
0,0,0.0245166787256797,0.0245166787256797,white,yes,psycho,psycho,psycho,0,uniform,0,undefined,0,a,1,0,8,1,1,0,0,0,0,,8,0,8,8,0,8,1,8,8,Tue Dec  5 10:22:00 2023,A template containing a practice and an experimental phase,yes,언어학과심리실험_B조_기말과제용심리실험.osexp,C:\Users\caphi\Downloads,no,mono,no,18,no,black,no,no,768,psycho,5,5,0,C:\Users\caphi\Downloads\quickrun.csv,psycho,Lentiform Loewenfeld,3.3.14,no,과일,natural,no-correlation,0,None,,x,,s,None,a,0.022500054910779,,714.4634999567643,,576.4024000382051,0.022500054910779,800.7511999458075,2,psycho,1024,2,48000,-16,experiment,999,odd,가방,artifactual,,26883.403199957684,17501.452299999073,17501.336699933745,,16785.595200024545,11573.952300008386,17500.788199948147,,26143.468900001608,11606.920299935156,27808.45699994825,27808.605100028217,12183.994699968023,26356.89930000808,,27006.972900009718,26115.291699999943,Extended template,0,0.1471000723540783,6,yes,1024
0,0,0.0276571538831506,0.0276571538831506,white,yes,psycho,psycho,psycho,0,uniform,0,undefined,0,a,1,0,9,1,1,0,0,0,0,,9,0,9,9,0,9,1,9,9,Tue Dec  5 10:22:00 2023,A template containing a practice and an experimental phase,yes,언어학과심리실험_B조_기말과제용심리실험.osexp,C:\Users\caphi\Downloads,no,mono,no,18,no,black,no,no,768,psycho,6,6,0,C:\Users\caphi\Downloads\quickrun.csv,psycho,Lentiform Loewenfeld,3.3.14,no,불,natural,similar-environmental,0,None,,x,,s,None,a,0.0465000048279762,,714.4634999567643,,576.4024000382051,0.0465000048279762,646.7101000016555,2,psycho,1024,2,48000,-16,experiment,999,odd,소화기,artifactual,,28706.82229998056,17501.452299999073,17501.336699933745,,16785.595200024545,11573.952300008386,17500.788199948147,,27943.28869995661,11606.920299935156,29481.32549994625,29481.67889995966,12183.994699968023,28174.51689997688,,28833.383599994704,27915.742699988183,Extended template,0,0.1936000771820545,7,yes,1024
0,0,0.0271125027211383,0.0271125027211383,white,yes,psycho,psycho,psycho,0,uniform,0,undefined,0,a,1,0,10,1,1,0,0,0,0,,10,0,10,10,0,10,1,10,10,Tue Dec  5 10:22:00 2023,A template containing a practice and an experimental phase,yes,언어학과심리실험_B조_기말과제용심리실험.osexp,C:\Users\caphi\Downloads,no,mono,no,18,no,black,no,no,768,psycho,7,7,0,C:\Users\caphi\Downloads\quickrun.csv,psycho,Lentiform Loewenfeld,3.3.14,no,꽃,natural,no-correlation,0,None,,x,,s,None,a,0.0232999445870518,,714.4634999567643,,576.4024000382051,0.0232999445870518,859.1798000270501,2,psycho,1024,2,48000,-16,experiment,999,odd,경주,artifactual,,30356.737299938686,17501.452299999073,17501.336699933745,,16785.595200024545,11573.952300008386,17500.788199948147,,29619.569699978456,11606.920299935156,31360.643599997275,31360.81490002107,12183.994699968023,29851.452099974267,,30500.723599921912,29590.87700000964,Extended template,0,0.2169000217691064,8,yes,1024
0,0,0.0267888859121335,0.0267888859121335,white,yes,psycho,psycho,psycho,0,uniform,0,undefined,0,n,1,0,11,1,1,0,0,0,0,,11,0,11,11,0,11,1,11,11,Tue Dec  5 10:22:00 2023,A template containing a practice and an experimental phase,yes,언어학과심리실험_B조_기말과제용심리실험.osexp,C:\Users\caphi\Downloads,no,mono,no,18,no,black,no,no,768,psycho,8,8,0,C:\Users\caphi\Downloads\quickrun.csv,psycho,Lentiform Loewenfeld,3.3.14,no,장슈,non-word,non-word,0,None,,x,,s,None,n,0.0241999514400959,,714.4634999567643,,576.4024000382051,0.0241999514400959,758.3027000073344,2,psycho,1024,2,48000,-16,experiment,999,odd,다람쥐,natural,,32251.259099924937,17501.452299999073,17501.336699933745,,16785.595200024545,11573.952300008386,17500.788199948147,,31493.72010002844,11606.920299935156,33116.593200014904,33116.75909999758,12183.994699968023,31707.310699974187,,32357.55730001256,31470.181499957107,Extended template,0,0.2410999732092023,9,yes,1024
0,0,0.0278799911029636,0.0278799911029636,white,yes,psycho,psycho,psycho,0,uniform,0,undefined,0,n,1,0,12,1,1,0,0,0,0,,12,0,12,12,0,12,1,12,12,Tue Dec  5 10:22:00 2023,A template containing a practice and an experimental phase,yes,언어학과심리실험_B조_기말과제용심리실험.osexp,C:\Users\caphi\Downloads,no,mono,no,18,no,black,no,no,768,psycho,9,9,0,C:\Users\caphi\Downloads\quickrun.csv,psycho,Lentiform Loewenfeld,3.3.14,no,새,natural,inclusive,0,None,,x,,s,None,n,0.0376999378204345,,714.4634999567643,,576.4024000382051,0.0376999378204345,604.8671000171453,2,psycho,1024,2,48000,-16,experiment,999,odd,까치,natural,,34007.74699996691,17501.452299999073,17501.336699933745,,16785.595200024545,11573.952300008386,17500.788199948147,,33259.88749996759,11606.920299935156,34745.93370000366,34746.137099922635,12183.994699968023,33501.24799995683,,34140.216299914755,33233.96779992618,Extended template,0,0.2787999110296368,10,yes,1024
0,0,0.0273545420813289,0.0273545420813289,white,yes,psycho,psycho,psycho,0,uniform,0,undefined,0,n,1,0,13,1,1,0,0,0,0,,13,0,13,13,0,13,1,13,13,Tue Dec  5 10:22:00 2023,A template containing a practice and an experimental phase,yes,언어학과심리실험_B조_기말과제용심리실험.osexp,C:\Users\caphi\Downloads,no,mono,no,18,no,black,no,no,768,psycho,10,10,0,C:\Users\caphi\Downloads\quickrun.csv,psycho,Lentiform Loewenfeld,3.3.14,no,악어,natural,similar-environmental,0,None,,x,,s,None,n,0.0221000518649816,,714.4634999567643,,576.4024000382051,0.0221000518649816,706.548499991186,2,psycho,1024,2,48000,-16,experiment,999,odd,늪,natural,,35633.49329994526,17501.452299999073,17501.336699933745,,16785.595200024545,11573.952300008386,17500.788199948147,,34886.68539992068,11606.920299935156,36464.24899995327,36464.4188999664,12183.994699968023,35107.38960001618,,35756.864099996164,34855.714199948125,Extended template,0,0.3008999628946185,11,yes,1024
0,0,0.0269416583857188,0.0269416583857188,white,yes,psycho,psycho,psycho,0,uniform,0,undefined,0,n,1,0,14,1,1,0,0,0,0,,14,0,14,14,0,14,1,14,14,Tue Dec  5 10:22:00 2023,A template containing a practice and an experimental phase,yes,언어학과심리실험_B조_기말과제용심리실험.osexp,C:\Users\caphi\Downloads,no,mono,no,18,no,black,no,no,768,psycho,11,11,0,C:\Users\caphi\Downloads\quickrun.csv,psycho,Lentiform Loewenfeld,3.3.14,no,태양계,natural,inclusive,0,None,,x,,s,None,n,0.0223999377340078,,714.4634999567643,,576.4024000382051,0.0223999377340078,766.7321000481024,2,psycho,1024,2,48000,-16,experiment,999,odd,목성,natural,,37349.80780002661,17501.452299999073,17501.336699933745,,16785.595200024545,11573.952300008386,17500.788199948147,,36610.35470000934,11606.920299935156,38224.10450002644,38224.28460000083,12183.994699968023,36823.54789995588,,37456.68099995237,36576.19399996474,Extended template,0,0.3232999006286263,12,yes,1024
0,0,0.0266076889462195,0.0266076889462195,white,yes,psycho,psycho,psycho,0,uniform,0,undefined,0,n,1,0,15,1,1,0,0,0,0,,15,0,15,15,0,15,1,15,15,Tue Dec  5 10:22:00 2023,A template containing a practice and an experimental phase,yes,언어학과심리실험_B조_기말과제용심리실험.osexp,C:\Users\caphi\Downloads,no,mono,no,18,no,black,no,no,768,psycho,12,12,0,C:\Users\caphi\Downloads\quickrun.csv,psycho,Lentiform Loewenfeld,3.3.14,no,호수,natural,no-correlation,0,None,,x,,s,None,n,0.0226000556722283,,714.4634999567643,,576.4024000382051,0.0226000556722283,687.0162000413984,2,psycho,1024,2,48000,-16,experiment,999,odd,소나무,natural,,39098.87849993538,17501.452299999073,17501.336699933745,,16785.595200024545,11573.952300008386,17500.788199948147,,38359.69509999268,11606.920299935156,39895.73579991702,39895.91670001391,12183.994699968023,38573.75959993806,,39207.992899930105,38344.25069997087,Extended template,0,0.3458999563008547,13,yes,1024
0,0,0.026264286134392,0.026264286134392,white,yes,psycho,psycho,psycho,0,uniform,0,undefined,0,a,1,0,16,1,1,0,0,0,0,,16,0,16,16,0,16,1,16,16,Tue Dec  5 10:22:00 2023,A template containing a practice and an experimental phase,yes,언어학과심리실험_B조_기말과제용심리실험.osexp,C:\Users\caphi\Downloads,no,mono,no,18,no,black,no,no,768,psycho,13,13,0,C:\Users\caphi\Downloads\quickrun.csv,psycho,Lentiform Loewenfeld,3.3.14,no,건물,artifactual,inclusive,0,None,,x,,s,None,a,0.0218000495806336,,714.4634999567643,,576.4024000382051,0.0218000495806336,668.6770999804139,2,psycho,1024,2,48000,-16,experiment,999,odd,병원,artifactual,,40773.73939997051,17501.452299999073,17501.336699933745,,16785.595200024545,11573.952300008386,17500.788199948147,,40026.88559994567,11606.920299935156,41560.64459995832,41560.84609997925,12183.994699968023,40240.82479998469,,40891.147100017406,40003.31429997459,Extended template,0,0.3677000058814883,14,yes,1024
0,0,0.0275666670252879,0.0275666670252879,white,yes,psycho,psycho,psycho,0,uniform,0,undefined,0,a,1,0,17,1,1,0,0,0,0,,17,0,17,17,0,17,1,17,17,Tue Dec  5 10:22:00 2023,A template containing a practice and an experimental phase,yes,언어학과심리실험_B조_기말과제용심리실험.osexp,C:\Users\caphi\Downloads,no,mono,no,18,no,black,no,no,768,psycho,14,14,0,C:\Users\caphi\Downloads\quickrun.csv,psycho,Lentiform Loewenfeld,3.3.14,no,시,artifactual,similar-environmental,0,None,,x,,s,None,a,0.0457999994978308,,714.4634999567643,,576.4024000382051,0.0457999994978308,1108.0194000387564,2,psycho,1024,2,48000,-16,experiment,999,odd,소설,artifactual,,42449.73290001508,17501.452299999073,17501.336699933745,,16785.595200024545,11573.952300008386,17500.788199948147,,41705.20339999348,11606.920299935156,43675.67509994842,43676.12349998672,12183.994699968023,41924.23060000874,,42566.72689993866,41670.4506999813,Extended template,0,0.4135000053793192,15,yes,1024
0,0,0.0275812490144744,0.0275812490144744,white,yes,psycho,psycho,psycho,0,uniform,0,undefined,0,a,1,0,18,1,1,0,0,0,0,,18,0,18,18,0,18,1,18,18,Tue Dec  5 10:22:00 2023,A template containing a practice and an experimental phase,yes,언어학과심리실험_B조_기말과제용심리실험.osexp,C:\Users\caphi\Downloads,no,mono,no,18,no,black,no,no,768,psycho,15,15,0,C:\Users\caphi\Downloads\quickrun.csv,psycho,Lentiform Loewenfeld,3.3.14,no,국가,artifactual,inclusive,0,None,,x,,s,None,a,0.027799978852272,,714.4634999567643,,576.4024000382051,0.027799978852272,655.5848000571132,2,psycho,1024,2,48000,-16,experiment,999,odd,대한민국,artifactual,,44523.99949997198,17501.452299999073,17501.336699933745,,16785.595200024545,11573.952300008386,17500.788199948147,,43793.05769992061,11606.920299935156,45306.43360002432,45306.68539996259,12183.994699968023,44006.91839994397,,44650.04809992388,43780.97690001596,Extended template,0,0.4412999842315912,16,yes,1024
0,0,0.0272176488686133,0.0272176488686133,white,yes,psycho,psycho,psycho,0,uniform,0,undefined,0,a,0,0,19,1,1,0,0,0,0,,19,0,19,19,0,19,1,19,19,Tue Dec  5 10:22:00 2023,A template containing a practice and an experimental phase,yes,언어학과심리실험_B조_기말과제용심리실험.osexp,C:\Users\caphi\Downloads,no,mono,no,18,no,black,no,no,768,psycho,16,16,0,C:\Users\caphi\Downloads\quickrun.csv,psycho,Lentiform Loewenfeld,3.3.14,no,프린터,artifactual,similar-environmental,0,None,,x,,s,None,capslock,0.0214000465348362,,714.4634999567643,,576.4024000382051,0.0214000465348362,117.2802000073716,2,psycho,1024,2,48000,-16,experiment,999,odd,종이,artifactual,,46191.28639996052,17501.452299999073,17501.336699933745,,16785.595200024545,11573.952300008386,17500.788199948147,,45443.0533000268,11606.920299935156,46435.23009994533,46435.47329993453,12183.994699968023,45674.3170999689,,46317.2012999421,45432.94369999785,Extended template,0,0.4627000307664275,17,yes,1024
0,0,0.0272388893386556,0.0272388893386556,white,yes,psycho,psycho,psycho,0,uniform,0,undefined,0,a,1,0,20,1,1,0,0,0,0,,20,0,20,20,0,20,1,20,20,Tue Dec  5 10:22:00 2023,A template containing a practice and an experimental phase,yes,언어학과심리실험_B조_기말과제용심리실험.osexp,C:\Users\caphi\Downloads,no,mono,no,18,no,black,no,no,768,psycho,17,17,0,C:\Users\caphi\Downloads\quickrun.csv,psycho,Lentiform Loewenfeld,3.3.14,no,호수,natural,no-correlation,0,None,,x,,s,None,a,0.0275999773293733,,714.4634999567643,,576.4024000382051,0.0275999773293733,1427.9071000637489,2,psycho,1024,2,48000,-16,experiment,999,odd,대학교,artifactual,,47323.675199993886,17501.452299999073,17501.336699933745,,16785.595200024545,11573.952300008386,17500.788199948147,,46569.9340000283,11606.920299935156,48886.28299999982,48886.5299000172,12183.994699968023,46801.30980000831,,47457.441499922425,46544.04249996878,Extended template,0,0.4903000080958009,18,yes,1024
0,0,0.0271842091981517,0.0271842091981517,white,yes,psycho,psycho,psycho,0,uniform,0,undefined,0,n,1,0,21,1,1,0,0,0,0,,21,0,21,21,0,21,1,21,21,Tue Dec  5 10:22:00 2023,A template containing a practice and an experimental phase,yes,언어학과심리실험_B조_기말과제용심리실험.osexp,C:\Users\caphi\Downloads,no,mono,no,18,no,black,no,no,768,psycho,18,18,0,C:\Users\caphi\Downloads\quickrun.csv,psycho,Lentiform Loewenfeld,3.3.14,no,불,natural,no-correlation,0,None,,x,,s,None,n,0.0261999666690826,,714.4634999567643,,576.4024000382051,0.0261999666690826,1026.841499959119,2,psycho,1024,2,48000,-16,experiment,999,odd,바위,natural,,49740.7521000132,17501.452299999073,17501.336699933745,,16785.595200024545,11573.952300008386,17500.788199948147,,49009.22449992504,11606.920299935156,50884.45040001534,50884.70019993838,12183.994699968023,49224.059199914336,,49856.771699967794,48994.19479991775,Extended template,0,0.5164999747648835,19,yes,1024
0,0,0.0270299962721765,0.0270299962721765,white,yes,psycho,psycho,psycho,0,uniform,0,undefined,0,n,1,0,22,1,1,0,0,0,0,,22,0,22,22,0,22,1,22,22,Tue Dec  5 10:22:00 2023,A template containing a practice and an experimental phase,yes,언어학과심리실험_B조_기말과제용심리실험.osexp,C:\Users\caphi\Downloads,no,mono,no,18,no,black,no,no,768,psycho,19,19,0,C:\Users\caphi\Downloads\quickrun.csv,psycho,Lentiform Loewenfeld,3.3.14,no,불,natural,no-correlation,0,None,,x,,s,None,n,0.0240999506786465,,714.4634999567643,,576.4024000382051,0.0240999506786465,715.8350999234244,2,psycho,1024,2,48000,-16,experiment,999,odd,물고기,natural,,51757.617700030096,17501.452299999073,17501.336699933745,,16785.595200024545,11573.952300008386,17500.788199948147,,51027.61809993535,11606.920299935156,52590.98209999502,52591.20589995291,12183.994699968023,51250.10880001355,,51874.283500015736,50996.43299996387,Extended template,0,0.5405999254435301,20,yes,1024
0,0,0.0270333285221741,0.0270333285221741,white,yes,psycho,psycho,psycho,0,uniform,0,undefined,0,a,1,0,23,1,1,0,0,0,0,,23,0,23,23,0,23,1,23,23,Tue Dec  5 10:22:00 2023,A template containing a practice and an experimental phase,yes,언어학과심리실험_B조_기말과제용심리실험.osexp,C:\Users\caphi\Downloads,no,mono,no,18,no,black,no,no,768,psycho,20,20,0,C:\Users\caphi\Downloads\quickrun.csv,psycho,Lentiform Loewenfeld,3.3.14,no,도미노,artifactual,same phoneme,0,None,,x,,s,None,a,0.0270999735221266,,714.4634999567643,,576.4024000382051,0.0270999735221266,1013.2659999653696,2,psycho,1024,2,48000,-16,experiment,999,odd,도서,artifactual,,53473.4812999377,17501.452299999073,17501.336699933745,,16785.595200024545,11573.952300008386,17500.788199948147,,52727.09820000455,11606.920299935156,54615.09109998588,54615.36559998058,12183.994699968023,52956.93169999868,,53600.90449999552,52708.59599998221,Extended template,0,0.5676998989656568,21,yes,1024
0,0,0.0269227259030396,0.0269227259030396,white,yes,psycho,psycho,psycho,0,uniform,0,undefined,0,n,1,0,24,1,1,0,0,0,0,,24,0,24,24,0,24,1,24,24,Tue Dec  5 10:22:00 2023,A template containing a practice and an experimental phase,yes,언어학과심리실험_B조_기말과제용심리실험.osexp,C:\Users\caphi\Downloads,no,mono,no,18,no,black,no,no,768,psycho,21,21,0,C:\Users\caphi\Downloads\quickrun.csv,psycho,Lentiform Loewenfeld,3.3.14,no,바닥,artifactual,same phoneme,0,None,,x,,s,None,n,0.024600070901215,,714.4634999567643,,576.4024000382051,0.024600070901215,1121.4348999783397,2,psycho,1024,2,48000,-16,experiment,999,odd,바다,natural,,55474.39500002656,17501.452299999073,17501.336699933745,,16785.595200024545,11573.952300008386,17500.788199948147,,54743.628799915314,11606.920299935156,56729.50579994358,56729.78359996341,12183.994699968023,54958.16849998664,,55607.23319998942,54725.63819994684,Extended template,0,0.5922999698668718,22,yes,1024
0,0,0.0271739124360939,0.0271739124360939,white,yes,psycho,psycho,psycho,0,uniform,0,undefined,0,n,1,0,25,1,1,0,0,0,0,,25,0,25,25,0,25,1,25,25,Tue Dec  5 10:22:00 2023,A template containing a practice and an experimental phase,yes,언어학과심리실험_B조_기말과제용심리실험.osexp,C:\Users\caphi\Downloads,no,mono,no,18,no,black,no,no,768,psycho,22,22,0,C:\Users\caphi\Downloads\quickrun.csv,psycho,Lentiform Loewenfeld,3.3.14,no,호랑이,natural,same phoneme,0,None,,x,,s,None,n,0.0327000161632895,,714.4634999567643,,576.4024000382051,0.0327000161632895,1679.7710999380795,2,psycho,1024,2,48000,-16,experiment,999,odd,호수,natural,,57607.51130001154,17501.452299999073,17501.336699933745,,16785.595200024545,11573.952300008386,17500.788199948147,,56869.85359992832,11606.920299935156,59431.99349998031,59432.28670000099,12183.994699968023,57100.16619996168,,57751.02510000579,56839.02249997482,Extended template,0,0.6249999860301614,23,yes,1024
0,0,0.0269874969186882,0.0269874969186882,white,yes,psycho,psycho,psycho,0,uniform,0,undefined,0,a,1,0,26,1,1,0,0,0,0,,26,0,26,26,0,26,1,26,26,Tue Dec  5 10:22:00 2023,A template containing a practice and an experimental phase,yes,언어학과심리실험_B조_기말과제용심리실험.osexp,C:\Users\caphi\Downloads,no,mono,no,18,no,black,no,no,768,psycho,23,23,0,C:\Users\caphi\Downloads\quickrun.csv,psycho,Lentiform Loewenfeld,3.3.14,no,화분,artifactual,no-correlation,0,None,,x,,s,None,a,0.0226999400183558,,714.4634999567643,,576.4024000382051,0.0226999400183558,734.2731000389904,2,psycho,1024,2,48000,-16,experiment,999,odd,신발,artifactual,,60333.41259998269,17501.452299999073,17501.336699933745,,16785.595200024545,11573.952300008386,17500.788199948147,,59576.74069993664,11606.920299935156,61176.32540001068,61176.56839999836,12183.994699968023,59807.5859999517,,60441.28249993082,59559.44580002688,Extended template,0,0.6476999260485172,24,yes,1024
0,0,0.0268759997561573,0.0268759997561573,white,yes,psycho,psycho,psycho,0,uniform,0,undefined,0,n,1,0,27,1,1,0,0,0,0,,27,0,27,27,0,27,1,27,27,Tue Dec  5 10:22:00 2023,A template containing a practice and an experimental phase,yes,언어학과심리실험_B조_기말과제용심리실험.osexp,C:\Users\caphi\Downloads,no,mono,no,18,no,black,no,no,768,psycho,24,24,0,C:\Users\caphi\Downloads\quickrun.csv,psycho,Lentiform Loewenfeld,3.3.14,no,전구,artifactual,similar-environmental,0,None,,x,,s,None,n,0.0242000678554177,,714.4634999567643,,576.4024000382051,0.0242000678554177,800.0969999702647,2,psycho,1024,2,48000,-16,experiment,999,odd,빛,natural,,62032.74059994146,17501.452299999073,17501.336699933745,,16785.595200024545,11573.952300008386,17500.788199948147,,61293.09920000378,11606.920299935156,62941.33129995316,62941.592999966815,12183.994699968023,61507.239599945024,,62140.39159996901,61284.23069999553,Extended template,0,0.671899993903935,25,yes,1024
0,0,0.0269846193707333,0.0269846193707333,white,yes,psycho,psycho,psycho,0,uniform,0,undefined,0,n,0,0,28,1,1,0,0,0,0,,28,0,28,28,0,28,1,28,28,Tue Dec  5 10:22:00 2023,A template containing a practice and an experimental phase,yes,언어학과심리실험_B조_기말과제용심리실험.osexp,C:\Users\caphi\Downloads,no,mono,no,18,no,black,no,no,768,psycho,25,25,0,C:\Users\caphi\Downloads\quickrun.csv,psycho,Lentiform Loewenfeld,3.3.14,no,우산,artifactual,similar-environmental,0,None,,x,,s,None,a,0.0297001097351312,,714.4634999567643,,576.4024000382051,0.0297001097351312,754.4907999690622,2,psycho,1024,2,48000,-16,experiment,999,odd,비,natural,,63833.263500011526,17501.452299999073,17501.336699933745,,16785.595200024545,11573.952300008386,17500.788199948147,,63076.23329991475,11606.920299935156,64697.396399918944,64697.7558999788,12183.994699968023,63307.71620001178,,63941.69030000921,63059.03040000703,Extended template,0,0.7016001036390662,26,yes,1024
0,0,0.0270925962400657,0.0270925962400657,white,yes,psycho,psycho,psycho,0,uniform,0,undefined,0,n,1,0,29,1,1,0,0,0,0,,29,0,29,29,0,29,1,29,29,Tue Dec  5 10:22:00 2023,A template containing a practice and an experimental phase,yes,언어학과심리실험_B조_기말과제용심리실험.osexp,C:\Users\caphi\Downloads,no,mono,no,18,no,black,no,no,768,psycho,26,26,0,C:\Users\caphi\Downloads\quickrun.csv,psycho,Lentiform Loewenfeld,3.3.14,no,가을,natural,similar-environmental,0,None,,x,,s,None,n,0.0298999948427081,,714.4634999567643,,576.4024000382051,0.0298999948427081,788.3008000208065,2,psycho,1024,2,48000,-16,experiment,999,odd,낙엽,natural,,65584.37499997672,17501.452299999073,17501.336699933745,,16785.595200024545,11573.952300008386,17500.788199948147,,64827.07449991722,11606.920299935156,66496.83089996688,66497.13869998232,12183.994699968023,65051.31040001288,,65707.47359993402,64808.66630002856,Extended template,0,0.7315000984817743,27,yes,1024
0,0,0.0271035782394132,0.0271035782394132,white,yes,psycho,psycho,psycho,0,uniform,0,undefined,0,a,0,0,30,1,1,0,0,0,0,,30,0,30,30,0,30,1,30,30,Tue Dec  5 10:22:00 2023,A template containing a practice and an experimental phase,yes,언어학과심리실험_B조_기말과제용심리실험.osexp,C:\Users\caphi\Downloads,no,mono,no,18,no,black,no,no,768,psycho,27,27,0,C:\Users\caphi\Downloads\quickrun.csv,psycho,Lentiform Loewenfeld,3.3.14,no,학교,artifactual,inclusive,0,None,,x,,s,None,n,0.0274000922217965,,714.4634999567643,,576.4024000382051,0.0274000922217965,780.2767999237403,2,psycho,1024,2,48000,-16,experiment,999,odd,학생,artifactual,,67374.48909995146,17501.452299999073,17501.336699933745,,16785.595200024545,11573.952300008386,17500.788199948147,,66643.97099998314,11606.920299935156,68281.54529992025,68281.86979994643,12183.994699968023,66857.47759998776,,67500.33840001561,66621.37459998485,Extended template,0,0.7589001907035708,28,yes,1024
0,0,0.0269793190768566,0.0269793190768566,white,yes,psycho,psycho,psycho,0,uniform,0,undefined,0,n,1,0,31,1,1,0,0,0,0,,31,0,31,31,0,31,1,31,31,Tue Dec  5 10:22:00 2023,A template containing a practice and an experimental phase,yes,언어학과심리실험_B조_기말과제용심리실험.osexp,C:\Users\caphi\Downloads,no,mono,no,18,no,black,no,no,768,psycho,28,28,0,C:\Users\caphi\Downloads\quickrun.csv,psycho,Lentiform Loewenfeld,3.3.14,no,과일,natural,inclusive,0,None,,x,,s,None,n,0.0235000625252723,,714.4634999567643,,576.4024000382051,0.0235000625252723,653.0856000026688,2,psycho,1024,2,48000,-16,experiment,999,odd,사과,natural,,69141.07010001317,17501.452299999073,17501.336699933745,,16785.595200024545,11573.952300008386,17500.788199948147,,68410.1929999888,11606.920299935156,69911.8213999318,69912.08999999799,12183.994699968023,68625.00959995668,,69257.90159997996,68393.24869995471,Extended template,0,0.7824002532288432,29,yes,1024
0,0,0.0269166775979101,0.0269166775979101,white,yes,psycho,psycho,psycho,0,uniform,0,undefined,0,n,0,0,32,1,1,0,0,0,0,,32,0,32,32,0,32,1,32,32,Tue Dec  5 10:22:00 2023,A template containing a practice and an experimental phase,yes,언어학과심리실험_B조_기말과제용심리실험.osexp,C:\Users\caphi\Downloads,no,mono,no,18,no,black,no,no,768,psycho,29,29,0,C:\Users\caphi\Downloads\quickrun.csv,psycho,Lentiform Loewenfeld,3.3.14,no,달,artifactual,same phoneme,0,None,,x,,s,None,a,0.0251000747084617,,714.4634999567643,,576.4024000382051,0.0251000747084617,729.6905999537557,2,psycho,1024,2,48000,-16,experiment,999,odd,달력,natural,,70790.42729991488,17501.452299999073,17501.336699933745,,16785.595200024545,11573.952300008386,17500.788199948147,,70043.82609995082,11606.920299935156,71647.25259994157,71647.5440999493,12183.994699968023,70257.38800002728,,70916.64479998872,70024.28050001618,Extended template,0,0.807500327937305,30,yes,1024
0,0,0.0268645291667311,0.0268645291667311,white,yes,psycho,psycho,psycho,0,uniform,0,undefined,0,x,1,0,33,1,1,0,0,0,0,,33,0,33,33,0,33,1,33,33,Tue Dec  5 10:22:00 2023,A template containing a practice and an experimental phase,yes,언어학과심리실험_B조_기말과제용심리실험.osexp,C:\Users\caphi\Downloads,no,mono,no,18,no,black,no,no,768,psycho,30,30,0,C:\Users\caphi\Downloads\quickrun.csv,psycho,Lentiform Loewenfeld,3.3.14,no,사자,natural,non-word,0,None,,x,,s,None,x,0.0253000762313604,,714.4634999567643,,576.4024000382051,0.0253000762313604,831.2788000330329,2,psycho,1024,2,48000,-16,experiment,999,odd,러스바이,non-word,,72524.45689996239,17501.452299999073,17501.336699933745,,16785.595200024545,11573.952300008386,17500.788199948147,,71785.94119998161,11606.920299935156,73481.61319992505,73481.94949992467,12183.994699968023,72017.07609998994,,72649.31899996009,71755.6607000297,Extended template,0,0.8328004041686654,31,yes,1024
0,0,0.026709385565482,0.026709385565482,white,yes,psycho,psycho,psycho,0,uniform,0,undefined,0,a,1,0,34,1,1,0,0,0,0,,34,0,34,34,0,34,1,34,34,Tue Dec  5 10:22:00 2023,A template containing a practice and an experimental phase,yes,언어학과심리실험_B조_기말과제용심리실험.osexp,C:\Users\caphi\Downloads,no,mono,no,18,no,black,no,no,768,psycho,31,31,0,C:\Users\caphi\Downloads\quickrun.csv,psycho,Lentiform Loewenfeld,3.3.14,no,교통,artifactual,inclusive,0,None,,x,,s,None,a,0.0218999339267611,,714.4634999567643,,576.4024000382051,0.0218999339267611,648.8089000340551,2,psycho,1024,2,48000,-16,experiment,999,odd,자동차,artifactual,,74351.78639995866,17501.452299999073,17501.336699933745,,16785.595200024545,11573.952300008386,17500.788199948147,,73609.91529992316,11606.920299935156,75107.26630000863,75107.54909995012,12183.994699968023,73825.45799994841,,74457.4725999264,73594.13819992915,Extended template,0,0.8547003380954266,32,yes,1024
0,0,0.0265848604172016,0.0265848604172016,white,yes,psycho,psycho,psycho,0,uniform,0,undefined,0,n,1,0,35,1,1,0,0,0,0,,35,0,35,35,0,35,1,35,35,Tue Dec  5 10:22:00 2023,A template containing a practice and an experimental phase,yes,언어학과심리실험_B조_기말과제용심리실험.osexp,C:\Users\caphi\Downloads,no,mono,no,18,no,black,no,no,768,psycho,32,32,0,C:\Users\caphi\Downloads\quickrun.csv,psycho,Lentiform Loewenfeld,3.3.14,no,수영,artifactual,similar-environmental,0,None,,x,,s,None,n,0.0226000556722283,,714.4634999567643,,576.4024000382051,0.0226000556722283,712.5750000122935,2,psycho,1024,2,48000,-16,experiment,999,odd,바다,natural,,75958.20450002793,17501.452299999073,17501.336699933745,,16785.595200024545,11573.952300008386,17500.788199948147,,75227.32609999366,11606.920299935156,76787.32879995368,76787.62560000177,12183.994699968023,75441.34149991442,,76073.89799994417,75216.59899991937,Extended template,0,0.8773003937676549,33,yes,1024
0,0,0.0264558920581989,0.0264558920581989,white,yes,psycho,psycho,psycho,0,uniform,0,undefined,0,n,1,0,36,1,1,0,0,0,0,,36,0,36,36,0,36,1,36,36,Tue Dec  5 10:22:00 2023,A template containing a practice and an experimental phase,yes,언어학과심리실험_B조_기말과제용심리실험.osexp,C:\Users\caphi\Downloads,no,mono,no,18,no,black,no,no,768,psycho,33,33,0,C:\Users\caphi\Downloads\quickrun.csv,psycho,Lentiform Loewenfeld,3.3.14,no,바다,natural,same phoneme,0,None,,x,,s,None,n,0.0221999362111091,,714.4634999567643,,576.4024000382051,0.0221999362111091,1333.4080999484286,2,psycho,1024,2,48000,-16,experiment,999,odd,바퀴벌레,natural,,77641.32719999179,17501.452299999073,17501.336699933745,,16785.595200024545,11573.952300008386,17500.788199948147,,76910.23759997915,11606.920299935156,79092.03920001164,79092.3362999456,12183.994699968023,77124.57220000215,,77757.7530000126,76899.8808999313,Extended template,0,0.8995003299787641,34,yes,1024
0,0,0.0263914399381194,0.0263914399381194,white,yes,psycho,psycho,psycho,0,uniform,0,undefined,0,a,1,0,37,1,1,0,0,0,0,,37,0,37,37,0,37,1,37,37,Tue Dec  5 10:22:00 2023,A template containing a practice and an experimental phase,yes,언어학과심리실험_B조_기말과제용심리실험.osexp,C:\Users\caphi\Downloads,no,mono,no,18,no,black,no,no,768,psycho,34,34,0,C:\Users\caphi\Downloads\quickrun.csv,psycho,Lentiform Loewenfeld,3.3.14,no,향수,artifactual,no-correlation,0,None,,x,,s,None,a,0.0242000678554177,,714.4634999567643,,576.4024000382051,0.0242000678554177,792.3791999928653,2,psycho,1024,2,48000,-16,experiment,999,odd,선풍기,artifactual,,79940.87970000692,17501.452299999073,17501.336699933745,,16785.595200024545,11573.952300008386,17500.788199948147,,79210.31619992573,11606.920299935156,80861.49139993358,80861.81979998946,12183.994699968023,79424.9845999293,,80068.28759994823,79198.29219998792,Extended template,0,0.9237003978341818,35,yes,1024
0,0,0.0263000094693981,0.0263000094693981,white,yes,psycho,psycho,psycho,0,uniform,0,undefined,0,n,1,0,38,1,1,0,0,0,0,,38,0,38,38,0,38,1,38,38,Tue Dec  5 10:22:00 2023,A template containing a practice and an experimental phase,yes,언어학과심리실험_B조_기말과제용심리실험.osexp,C:\Users\caphi\Downloads,no,mono,no,18,no,black,no,no,768,psycho,35,35,0,C:\Users\caphi\Downloads\quickrun.csv,psycho,Lentiform Loewenfeld,3.3.14,no,물고기,natural,no-correlation,0,None,,x,,s,None,n,0.0230999430641531,,714.4634999567643,,576.4024000382051,0.0230999430641531,1573.4579999698326,2,psycho,1024,2,48000,-16,experiment,999,odd,밤하늘,natural,,81757.45939998887,17501.452299999073,17501.336699933745,,16785.595200024545,11573.952300008386,17500.788199948147,,80994.10120001994,11606.920299935156,83456.80789998733,83457.11309998296,12183.994699968023,81224.45540002082,,81882.42799998261,80979.87889999058,Extended template,0,0.946800340898335,36,yes,1024
0,0,0.0261756862085816,0.0261756862085816,white,yes,psycho,psycho,psycho,0,uniform,0,undefined,0,n,1,0,39,1,1,0,0,0,0,,39,0,39,39,0,39,1,39,39,Tue Dec  5 10:22:00 2023,A template containing a practice and an experimental phase,yes,언어학과심리실험_B조_기말과제용심리실험.osexp,C:\Users\caphi\Downloads,no,mono,no,18,no,black,no,no,768,psycho,36,36,0,C:\Users\caphi\Downloads\quickrun.csv,psycho,Lentiform Loewenfeld,3.3.14,no,다리,artifactual,similar-environmental,0,None,,x,,s,None,n,0.0217000488191843,,714.4634999567643,,576.4024000382051,0.0217000488191843,717.3889999976382,2,psycho,1024,2,48000,-16,experiment,999,odd,강,natural,,84341.60859999247,17501.452299999073,17501.336699933745,,16785.595200024545,11573.952300008386,17500.788199948147,,83604.40750000998,11606.920299935156,85192.16799992137,85192.49629997648,12183.994699968023,83825.19699994009,,84473.83509995416,83569.83769999351,Extended template,0,0.9685003897175192,37,yes,1024
0,0,0.0262263255487931,0.0262263255487931,white,yes,psycho,psycho,psycho,0,uniform,0,undefined,0,n,1,0,40,1,1,0,0,0,0,,40,0,40,40,0,40,1,40,40,Tue Dec  5 10:22:00 2023,A template containing a practice and an experimental phase,yes,언어학과심리실험_B조_기말과제용심리실험.osexp,C:\Users\caphi\Downloads,no,mono,no,18,no,black,no,no,768,psycho,37,37,0,C:\Users\caphi\Downloads\quickrun.csv,psycho,Lentiform Loewenfeld,3.3.14,no,물고기,natural,inclusive,0,None,,x,,s,None,n,0.02809998113662,,714.4634999567643,,576.4024000382051,0.02809998113662,1240.8221999648958,2,psycho,1024,2,48000,-16,experiment,999,odd,연어,natural,,86066.37299992144,17501.452299999073,17501.336699933745,,16785.595200024545,11573.952300008386,17500.788199948147,,85327.25149998441,11606.920299935156,87432.61689995416,87433.02579992451,12183.994699968023,85541.4719999535,,86190.69229997694,85300.66880001687,Extended template,0,0.9966003708541392,38,yes,1024
0,0,0.0263179580752666,0.0263179580752666,white,yes,psycho,psycho,psycho,0,uniform,0,undefined,0,a,1,0,41,1,1,0,0,0,0,,41,0,41,41,0,41,1,41,41,Tue Dec  5 10:22:00 2023,A template containing a practice and an experimental phase,yes,언어학과심리실험_B조_기말과제용심리실험.osexp,C:\Users\caphi\Downloads,no,mono,no,18,no,black,no,no,768,psycho,38,38,0,C:\Users\caphi\Downloads\quickrun.csv,psycho,Lentiform Loewenfeld,3.3.14,no,카메라,artifactual,inclusive,0,None,,x,,s,None,a,0.0297999940812587,,714.4634999567643,,576.4024000382051,0.0297999940812587,683.2697000354528,2,psycho,1024,2,48000,-16,experiment,999,odd,렌즈,artifactual,,88308.19110001903,17501.452299999073,17501.336699933745,,16785.595200024545,11573.952300008386,17500.788199948147,,87570.76659996528,11606.920299935156,89118.697399972,89119.0400000196,12183.994699968023,87792.9870999651,,88434.40699996427,87545.70429993328,Extended template,0,1.026400364935398,39,yes,1024
0,0,0.0262200104771181,0.0262200104771181,white,yes,psycho,psycho,psycho,0,uniform,0,undefined,0,a,1,0,42,1,1,0,0,0,0,,42,0,42,42,0,42,1,42,42,Tue Dec  5 10:22:00 2023,A template containing a practice and an experimental phase,yes,언어학과심리실험_B조_기말과제용심리실험.osexp,C:\Users\caphi\Downloads,no,mono,no,18,no,black,no,no,768,psycho,39,39,0,C:\Users\caphi\Downloads\quickrun.csv,psycho,Lentiform Loewenfeld,3.3.14,no,산,natural,similar-environmental,0,None,,x,,s,None,a,0.0224000541493296,,714.4634999567643,,576.4024000382051,0.0224000541493296,887.9239000380039,2,psycho,1024,2,48000,-16,experiment,999,odd,오두막,artifactual,,89991.19149998296,17501.452299999073,17501.336699933745,,16785.595200024545,11573.952300008386,17500.788199948147,,89253.16089997068,11606.920299935156,91005.5431999499,91005.8594000293,12183.994699968023,89473.93199999351,,90116.61979998462,89229.28029997274,Extended template,0,1.0488004190847278,40,yes,1024
0,0,0.0261024475415668,0.0261024475415668,white,yes,psycho,psycho,psycho,0,uniform,0,undefined,0,n,1,0,43,1,1,0,0,0,0,,43,0,43,43,0,43,1,43,43,Tue Dec  5 10:22:00 2023,A template containing a practice and an experimental phase,yes,언어학과심리실험_B조_기말과제용심리실험.osexp,C:\Users\caphi\Downloads,no,mono,no,18,no,black,no,no,768,psycho,40,40,0,C:\Users\caphi\Downloads\quickrun.csv,psycho,Lentiform Loewenfeld,3.3.14,no,스노우보드,artifactual,no-correlation,0,None,,x,,s,None,n,0.0213999301195144,,714.4634999567643,,576.4024000382051,0.0213999301195144,632.9892000649124,2,psycho,1024,2,48000,-16,experiment,999,odd,꽃,natural,,91891.5312999161,17501.452299999073,17501.336699933745,,16785.595200024545,11573.952300008386,17500.788199948147,,91143.58499995431,11606.920299935156,92641.97120000608,92642.2938000178,12183.994699968023,91357.56049992052,,92008.01709992813,91125.73209998664,Extended template,0,1.0702003492042422,41,yes,1024
0,0,0.0260142925461488,0.0260142925461488,white,yes,psycho,psycho,psycho,0,uniform,0,undefined,0,n,1,0,44,1,1,0,0,0,0,,44,0,44,44,0,44,1,44,44,Tue Dec  5 10:22:00 2023,A template containing a practice and an experimental phase,yes,언어학과심리실험_B조_기말과제용심리실험.osexp,C:\Users\caphi\Downloads,no,mono,no,18,no,black,no,no,768,psycho,41,41,0,C:\Users\caphi\Downloads\quickrun.csv,psycho,Lentiform Loewenfeld,3.3.14,no,대학교,artifactual,no-correlation,0,None,,x,,s,None,n,0.0223999377340078,,714.4634999567643,,576.4024000382051,0.0223999377340078,1225.8303000126034,2,psycho,1024,2,48000,-16,experiment,999,odd,계곡,natural,,93524.00510001462,17501.452299999073,17501.336699933745,,16785.595200024545,11573.952300008386,17500.788199948147,,92787.9659999162,11606.920299935156,94867.23079998046,94867.57100000978,12183.994699968023,93008.3604999818,,93640.58020000812,92753.15150001552,Extended template,0,1.09260028693825,42,yes,1024
0,0,0.0259232636930984,0.0259232636930984,white,yes,psycho,psycho,psycho,0,uniform,0,undefined,0,x,1,0,45,1,1,0,0,0,0,,45,0,45,45,0,45,1,45,45,Tue Dec  5 10:22:00 2023,A template containing a practice and an experimental phase,yes,언어학과심리실험_B조_기말과제용심리실험.osexp,C:\Users\caphi\Downloads,no,mono,no,18,no,black,no,no,768,psycho,42,42,0,C:\Users\caphi\Downloads\quickrun.csv,psycho,Lentiform Loewenfeld,3.3.14,no,벨트,artifactual,non-word,0,None,,x,,s,None,x,0.0221000518649816,,714.4634999567643,,576.4024000382051,0.0221000518649816,833.0468999920413,2,psycho,1024,2,48000,-16,experiment,999,odd,진웬,non-word,,95740.75629992876,17501.452299999073,17501.336699933745,,16785.595200024545,11573.952300008386,17500.788199948147,,94993.6779999407,11606.920299935156,96702.41469994652,96702.75439997204,12183.994699968023,95216.88099997118,,95868.3268999448,94973.40199991596,Extended template,0,1.1147003388032315,43,yes,1024
0,0,0.0258409153585406,0.0258409153585406,white,yes,psycho,psycho,psycho,0,uniform,0,undefined,0,n,1,0,46,1,1,0,0,0,0,,46,0,46,46,0,46,1,46,46,Tue Dec  5 10:22:00 2023,A template containing a practice and an experimental phase,yes,언어학과심리실험_B조_기말과제용심리실험.osexp,C:\Users\caphi\Downloads,no,mono,no,18,no,black,no,no,768,psycho,43,43,0,C:\Users\caphi\Downloads\quickrun.csv,psycho,Lentiform Loewenfeld,3.3.14,no,모래,natural,similar-environmental,0,None,,x,,s,None,n,0.0222999369725585,,714.4634999567643,,576.4024000382051,0.0222999369725585,741.7123999912292,2,psycho,1024,2,48000,-16,experiment,999,odd,자갈,natural,,97591.35639993474,17501.452299999073,17501.336699933745,,16785.595200024545,11573.952300008386,17500.788199948147,,96844.25199998076,11606.920299935156,98460.49219998532,98460.83789994007,12183.994699968023,97074.31319996247,,97717.90950000286,96809.30730002,Extended template,0,1.1370002757757902,44,yes,1024
0,0,0.0257511183412538,0.0257511183412538,white,yes,psycho,psycho,psycho,0,uniform,0,undefined,0,n,1,0,47,1,1,0,0,0,0,,47,0,47,47,0,47,1,47,47,Tue Dec  5 10:22:00 2023,A template containing a practice and an experimental phase,yes,언어학과심리실험_B조_기말과제용심리실험.osexp,C:\Users\caphi\Downloads,no,mono,no,18,no,black,no,no,768,psycho,44,44,0,C:\Users\caphi\Downloads\quickrun.csv,psycho,Lentiform Loewenfeld,3.3.14,no,등산로,artifactual,similar-environmental,0,None,,x,,s,None,n,0.0218000495806336,,714.4634999567643,,576.4024000382051,0.0218000495806336,795.0721000088379,2,psycho,1024,2,48000,-16,experiment,999,odd,산,natural,,99333.51559995208,17501.452299999073,17501.336699933745,,16785.595200024545,11573.952300008386,17500.788199948147,,98594.12499994504,11606.920299935156,100237.77949996293,100238.12659992836,12183.994699968023,98808.16080002114,,99441.69659994075,98574.27759992424,Extended template,0,1.158800325356424,45,yes,1024
0,0,0.0256978319552929,0.0256978319552929,white,yes,psycho,psycho,psycho,0,uniform,0,undefined,0,n,1,0,48,1,1,0,0,0,0,,48,0,48,48,0,48,1,48,48,Tue Dec  5 10:22:00 2023,A template containing a practice and an experimental phase,yes,언어학과심리실험_B조_기말과제용심리실험.osexp,C:\Users\caphi\Downloads,no,mono,no,18,no,black,no,no,768,psycho,45,45,0,C:\Users\caphi\Downloads\quickrun.csv,psycho,Lentiform Loewenfeld,3.3.14,no,전등,artifactual,no-correlation,0,None,,x,,s,None,n,0.0232999445870518,,714.4634999567643,,576.4024000382051,0.0232999445870518,782.8138000331819,2,psycho,1024,2,48000,-16,experiment,999,odd,소,natural,,101117.36099992412,17501.452299999073,17501.336699933745,,16785.595200024545,11573.952300008386,17500.788199948147,,100377.83989997116,11606.920299935156,102007.76730000509,102008.13009997364,12183.994699968023,100591.21829993092,,101224.04599993024,100353.8697999902,Extended template,0,1.1821002699434755,46,yes,1024
0,0,0.025612772739631,0.025612772739631,white,yes,psycho,psycho,psycho,0,uniform,0,undefined,0,n,1,0,49,1,1,0,0,0,0,,49,0,49,49,0,49,1,49,49,Tue Dec  5 10:22:00 2023,A template containing a practice and an experimental phase,yes,언어학과심리실험_B조_기말과제용심리실험.osexp,C:\Users\caphi\Downloads,no,mono,no,18,no,black,no,no,768,psycho,46,46,0,C:\Users\caphi\Downloads\quickrun.csv,psycho,Lentiform Loewenfeld,3.3.14,no,곡물,natural,inclusive,0,None,,x,,s,None,n,0.0217000488191843,,714.4634999567643,,576.4024000382051,0.0217000488191843,677.3005001014099,2,psycho,1024,2,48000,-16,experiment,999,odd,밀,natural,,102890.74679999612,17501.452299999073,17501.336699933745,,16785.595200024545,11573.952300008386,17500.788199948147,,102143.67679995485,11606.920299935156,103686.1672999803,103686.5214999998,12183.994699968023,102367.33039992396,,103007.95459991788,102123.2721999986,Extended template,0,1.20380031876266,47,yes,1024
0,0,0.0255416744039393,0.0255416744039393,white,yes,psycho,psycho,psycho,0,uniform,0,undefined,0,a,1,0,50,1,1,0,0,0,0,,50,0,50,50,0,50,1,50,50,Tue Dec  5 10:22:00 2023,A template containing a practice and an experimental phase,yes,언어학과심리실험_B조_기말과제용심리실험.osexp,C:\Users\caphi\Downloads,no,mono,no,18,no,black,no,no,768,psycho,47,47,0,C:\Users\caphi\Downloads\quickrun.csv,psycho,Lentiform Loewenfeld,3.3.14,no,가방,artifactual,no-correlation,0,None,,x,,s,None,a,0.0222000526264309,,714.4634999567643,,576.4024000382051,0.0222000526264309,1167.9642000235615,2,psycho,1024,2,48000,-16,experiment,999,odd,기차,artifactual,,104558.73529997189,17501.452299999073,17501.336699933745,,16785.595200024545,11573.952300008386,17500.788199948147,,103827.4196999846,11606.920299935156,105852.59449994192,105852.95299999416,12183.994699968023,104041.784800007,,104683.61519998872,103796.96629999673,Extended template,0,1.226000371389091,48,yes,1024
0,0,0.0256102114003531,0.0256102114003531,white,yes,psycho,psycho,psycho,0,uniform,0,undefined,0,n,1,0,51,1,1,0,0,0,0,,51,0,51,51,0,51,1,51,51,Tue Dec  5 10:22:00 2023,A template containing a practice and an experimental phase,yes,언어학과심리실험_B조_기말과제용심리실험.osexp,C:\Users\caphi\Downloads,no,mono,no,18,no,black,no,no,768,psycho,48,48,0,C:\Users\caphi\Downloads\quickrun.csv,psycho,Lentiform Loewenfeld,3.3.14,no,늪,natural,similar-environmental,0,None,,x,,s,None,n,0.0288999872282147,,714.4634999567643,,576.4024000382051,0.0288999872282147,2711.2651999341324,2,psycho,1024,2,48000,-16,experiment,999,odd,악어,natural,,106724.94889993686,17501.452299999073,17501.336699933745,,16785.595200024545,11573.952300008386,17500.788199948147,,105994.05520001892,11606.920299935156,109563.52490000428,109563.91699996313,12183.994699968023,106207.41799997631,,106850.933299982,105967.62459992895,Extended template,0,1.2549003586173058,49,yes,1024
0,0,0.0255680084228515,0.0255680084228515,white,yes,psycho,psycho,psycho,0,uniform,0,undefined,0,n,1,0,52,1,1,0,0,0,0,,52,0,52,52,0,52,1,52,52,Tue Dec  5 10:22:00 2023,A template containing a practice and an experimental phase,yes,언어학과심리실험_B조_기말과제용심리실험.osexp,C:\Users\caphi\Downloads,no,mono,no,18,no,black,no,no,768,psycho,49,49,0,C:\Users\caphi\Downloads\quickrun.csv,psycho,Lentiform Loewenfeld,3.3.14,no,산,natural,similar-environmental,0,None,,x,,s,None,n,0.0235000625252723,,714.4634999567643,,576.4024000382051,0.0235000625252723,652.8022999409586,2,psycho,1024,2,48000,-16,experiment,999,odd,계곡,natural,,110457.5372999534,17501.452299999073,17501.336699933745,,16785.595200024545,11573.952300008386,17500.788199948147,,109703.00360000692,11606.920299935156,111238.62959991676,111239.0115999151,12183.994699968023,109934.71259996296,,110584.88219999708,109676.0338000022,Extended template,0,1.278400421142578,50,yes,1024
0,0,0.0254941268769257,0.0254941268769257,white,yes,psycho,psycho,psycho,0,uniform,0,undefined,0,n,1,0,53,1,1,0,0,0,0,,53,0,53,53,0,53,1,53,53,Tue Dec  5 10:22:00 2023,A template containing a practice and an experimental phase,yes,언어학과심리실험_B조_기말과제용심리실험.osexp,C:\Users\caphi\Downloads,no,mono,no,18,no,black,no,no,768,psycho,50,50,0,C:\Users\caphi\Downloads\quickrun.csv,psycho,Lentiform Loewenfeld,3.3.14,no,태양,natural,same phoneme,0,None,,x,,s,None,n,0.0218000495806336,,714.4634999567643,,576.4024000382051,0.0218000495806336,3292.139000026509,2,psycho,1024,2,48000,-16,experiment,999,odd,태풍,natural,,112117.40139999893,17501.452299999073,17501.336699933745,,16785.595200024545,11573.952300008386,17500.788199948147,,111370.68159994668,11606.920299935156,115517.91389996652,115518.28710001428,12183.994699968023,111592.13689994068,,112224.83269998338,111348.95569994114,Extended template,0,1.3002004707232118,51,yes,1024
0,0,0.0254269331120527,0.0254269331120527,white,yes,psycho,psycho,psycho,0,uniform,0,undefined,0,a,1,0,54,1,1,0,0,0,0,,54,0,54,54,0,54,1,54,54,Tue Dec  5 10:22:00 2023,A template containing a practice and an experimental phase,yes,언어학과심리실험_B조_기말과제용심리실험.osexp,C:\Users\caphi\Downloads,no,mono,no,18,no,black,no,no,768,psycho,51,51,0,C:\Users\caphi\Downloads\quickrun.csv,psycho,Lentiform Loewenfeld,3.3.14,no,기차,artifactual,no-correlation,0,None,,x,,s,None,a,0.0220000511035323,,714.4634999567643,,576.4024000382051,0.0220000511035323,797.8260000236332,2,psycho,1024,2,48000,-16,experiment,999,odd,가방,artifactual,,116374.9347999692,17501.452299999073,17501.336699933745,,16785.595200024545,11573.952300008386,17500.788199948147,,115644.27970000544,11606.920299935156,117299.28329994436,117299.67510001734,12183.994699968023,115857.94559994248,,116500.503999996,115625.50359999295,Extended template,0,1.322200521826744,52,yes,1024
0,0,0.0253622749609486,0.0253622749609486,white,yes,psycho,psycho,psycho,0,uniform,0,undefined,0,a,0,0,55,1,1,0,0,0,0,,55,0,55,55,0,55,1,55,55,Tue Dec  5 10:22:00 2023,A template containing a practice and an experimental phase,yes,언어학과심리실험_B조_기말과제용심리실험.osexp,C:\Users\caphi\Downloads,no,mono,no,18,no,black,no,no,768,psycho,52,52,0,C:\Users\caphi\Downloads\quickrun.csv,psycho,Lentiform Loewenfeld,3.3.14,no,바다,natural,same phoneme,0,None,,x,,s,None,n,0.0220000511035323,,714.4634999567643,,576.4024000382051,0.0220000511035323,1002.3863000096752,2,psycho,1024,2,48000,-16,experiment,999,odd,바구니,artifactual,,118158.19440002088,17501.452299999073,17501.336699933745,,16785.595200024545,11573.952300008386,17500.788199948147,,117427.0644999342,11606.920299935156,119287.63179993255,119288.0161999492,12183.994699968023,117642.20399991608,,118284.28849997,117411.33429994808,Extended template,0,1.3442005729302764,53,yes,1024
0,0,0.0253018634221344,0.0253018634221344,white,yes,psycho,psycho,psycho,0,uniform,0,undefined,0,a,1,0,56,1,1,0,0,0,0,,56,0,56,56,0,56,1,56,56,Tue Dec  5 10:22:00 2023,A template containing a practice and an experimental phase,yes,언어학과심리실험_B조_기말과제용심리실험.osexp,C:\Users\caphi\Downloads,no,mono,no,18,no,black,no,no,768,psycho,53,53,0,C:\Users\caphi\Downloads\quickrun.csv,psycho,Lentiform Loewenfeld,3.3.14,no,계곡,natural,no-correlation,0,None,,x,,s,None,a,0.0221000518649816,,714.4634999567643,,576.4024000382051,0.0221000518649816,886.0199000919238,2,psycho,1024,2,48000,-16,experiment,999,odd,화장실,artifactual,,120174.93300000206,17501.452299999073,17501.336699933745,,16785.595200024545,11573.952300008386,17500.788199948147,,119427.3454999784,11606.920299935156,121188.1635999307,121188.57210001444,12183.994699968023,119658.1159000052,,120301.00999993738,119398.13069999218,Extended template,0,1.366300624795258,54,yes,1024
0,0,0.0253145582973957,0.0253145582973957,white,yes,psycho,psycho,psycho,0,uniform,0,undefined,0,a,1,0,57,1,1,0,0,0,0,,57,0,57,57,0,57,1,57,57,Tue Dec  5 10:22:00 2023,A template containing a practice and an experimental phase,yes,언어학과심리실험_B조_기말과제용심리실험.osexp,C:\Users\caphi\Downloads,no,mono,no,18,no,black,no,no,768,psycho,54,54,0,C:\Users\caphi\Downloads\quickrun.csv,psycho,Lentiform Loewenfeld,3.3.14,no,선설수,non-word,non-word,0,None,,x,,s,None,a,0.0260000815615057,,714.4634999567643,,576.4024000382051,0.0260000815615057,769.8220999445766,2,psycho,1024,2,48000,-16,experiment,999,odd,시계,artifactual,,122058.71210002806,17501.452299999073,17501.336699933745,,16785.595200024545,11573.952300008386,17500.788199948147,,121327.42989994586,11606.920299935156,122953.56019993778,122953.98559991736,12183.994699968023,121541.94040002768,,122182.54399998114,121296.17579991464,Extended template,0,1.3923007063567638,55,yes,1024
0,0,0.0253107261544625,0.0253107261544625,white,yes,psycho,psycho,psycho,0,uniform,0,undefined,0,n,1,0,58,1,1,0,0,0,0,,58,0,58,58,0,58,1,58,58,Tue Dec  5 10:22:00 2023,A template containing a practice and an experimental phase,yes,언어학과심리실험_B조_기말과제용심리실험.osexp,C:\Users\caphi\Downloads,no,mono,no,18,no,black,no,no,768,psycho,55,55,0,C:\Users\caphi\Downloads\quickrun.csv,psycho,Lentiform Loewenfeld,3.3.14,no,스노우보드,artifactual,no-correlation,0,None,,x,,s,None,n,0.0250999582931399,,714.4634999567643,,576.4024000382051,0.0250999582931399,866.3687999360263,2,psycho,1024,2,48000,-16,experiment,999,odd,소나무,natural,,123840.9872999182,17501.452299999073,17501.336699933745,,16785.595200024545,11573.952300008386,17500.788199948147,,123112.28939995635,11606.920299935156,124825.87469997816,124826.31159992889,12183.994699968023,123325.42150001971,,123958.46110000277,123068.7397000147,Extended template,0,1.4174006646499038,56,yes,1024
0,0,0.025301767317088,0.025301767317088,white,yes,psycho,psycho,psycho,0,uniform,0,undefined,0,n,1,0,59,1,1,0,0,0,0,,59,0,59,59,0,59,1,59,59,Tue Dec  5 10:22:00 2023,A template containing a practice and an experimental phase,yes,언어학과심리실험_B조_기말과제용심리실험.osexp,C:\Users\caphi\Downloads,no,mono,no,18,no,black,no,no,768,psycho,56,56,0,C:\Users\caphi\Downloads\quickrun.csv,psycho,Lentiform Loewenfeld,3.3.14,no,동굴,natural,similar-environmental,0,None,,x,,s,None,n,0.0248000724241137,,714.4634999567643,,576.4024000382051,0.0248000724241137,924.2316000163556,2,psycho,1024,2,48000,-16,experiment,999,odd,박쥐,natural,,125724.46329996455,17501.452299999073,17501.336699933745,,16785.595200024545,11573.952300008386,17500.788199948147,,124978.77879999578,11606.920299935156,126767.98809994943,126768.41289992444,12183.994699968023,125191.87889993192,,125842.60209999049,124942.90779996663,Extended template,0,1.4422007370740175,57,yes,1024
0,0,0.0254896686187592,0.0254896686187592,white,yes,psycho,psycho,psycho,0,uniform,0,undefined,0,n,1,0,60,1,1,0,0,0,0,,60,0,60,60,0,60,1,60,60,Tue Dec  5 10:22:00 2023,A template containing a practice and an experimental phase,yes,언어학과심리실험_B조_기말과제용심리실험.osexp,C:\Users\caphi\Downloads,no,mono,no,18,no,black,no,no,768,psycho,57,57,0,C:\Users\caphi\Downloads\quickrun.csv,psycho,Lentiform Loewenfeld,3.3.14,no,해질녘,natural,same phoneme,0,None,,x,,s,None,n,0.0362000428140163,,714.4634999567643,,576.4024000382051,0.0362000428140163,1358.459399896674,2,psycho,1024,2,48000,-16,experiment,999,odd,해마,natural,,127657.6338999439,17501.452299999073,17501.336699933745,,16785.595200024545,11573.952300008386,17500.788199948147,,126894.54999996816,11606.920299935156,129133.81799997296,129134.45509993473,12183.994699968023,127125.78090000898,,127774.26680002829,126878.36829992013,Extended template,0,1.478400779888034,58,yes,1024
0,0,0.0255356061319678,0.0255356061319678,white,yes,psycho,psycho,psycho,0,uniform,0,undefined,0,a,0,0,61,1,1,0,0,0,0,,61,0,61,61,0,61,1,61,61,Tue Dec  5 10:22:00 2023,A template containing a practice and an experimental phase,yes,언어학과심리실험_B조_기말과제용심리실험.osexp,C:\Users\caphi\Downloads,no,mono,no,18,no,black,no,no,768,psycho,58,58,0,C:\Users\caphi\Downloads\quickrun.csv,psycho,Lentiform Loewenfeld,3.3.14,no,꽃,natural,no-correlation,0,None,,x,,s,None,n,0.0281999818980693,,714.4634999567643,,576.4024000382051,0.0281999818980693,761.0769000602886,2,psycho,1024,2,48000,-16,experiment,999,odd,풍차,artifactual,,130024.2076999275,17501.452299999073,17501.336699933745,,16785.595200024545,11573.952300008386,17500.788199948147,,129287.98509994522,11606.920299935156,130912.99420001452,130913.4945999831,12183.994699968023,129519.3424000172,,130150.8337999694,129254.96849999765,Extended template,0,1.5066007617861032,59,yes,1024
0,0,0.0257183467814077,0.0257183467814077,white,yes,psycho,psycho,psycho,0,uniform,0,undefined,0,a,1,0,62,1,1,0,0,0,0,,62,0,62,62,0,62,1,62,62,Tue Dec  5 10:22:00 2023,A template containing a practice and an experimental phase,yes,언어학과심리실험_B조_기말과제용심리실험.osexp,C:\Users\caphi\Downloads,no,mono,no,18,no,black,no,no,768,psycho,59,59,0,C:\Users\caphi\Downloads\quickrun.csv,psycho,Lentiform Loewenfeld,3.3.14,no,벌레,natural,same phoneme,0,None,,x,,s,None,a,0.0365000450983643,,714.4634999567643,,576.4024000382051,0.0365000450983643,919.9766999809073,2,psycho,1024,2,48000,-16,experiment,999,odd,발레,artifactual,,131790.99040001165,17501.452299999073,17501.336699933745,,16785.595200024545,11573.952300008386,17500.788199948147,,131044.66449993195,11606.920299935156,132838.92799995374,132839.45799991488,12183.994699968023,131257.90109997615,,131917.81769995578,131023.52459996472,Extended template,0,1.5431008068844676,60,yes,1024
0,0,0.0258262429508518,0.0258262429508518,white,yes,psycho,psycho,psycho,0,uniform,0,undefined,0,a,1,0,63,1,1,0,0,0,0,,63,0,63,63,0,63,1,63,63,Tue Dec  5 10:22:00 2023,A template containing a practice and an experimental phase,yes,언어학과심리실험_B조_기말과제용심리실험.osexp,C:\Users\caphi\Downloads,no,mono,no,18,no,black,no,no,768,psycho,60,60,0,C:\Users\caphi\Downloads\quickrun.csv,psycho,Lentiform Loewenfeld,3.3.14,no,기계,artifactual,inclusive,0,None,,x,,s,None,a,0.0323000131174922,,714.4634999567643,,576.4024000382051,0.0323000131174922,740.7649999950081,2,psycho,1024,2,48000,-16,experiment,999,odd,컴퓨터,artifactual,,133717.4785999814,17501.452299999073,17501.336699933745,,16785.595200024545,11573.952300008386,17500.788199948147,,132960.69959993474,11606.920299935156,134566.2664999254,134566.7029999895,12183.994699968023,133191.39469997026,,133824.4433000218,132949.9040999217,Extended template,0,1.5754008200019598,61,yes,1024
0,0,0.0258532386543529,0.0258532386543529,white,yes,psycho,psycho,psycho,0,uniform,0,undefined,0,n,1,0,64,1,1,0,0,0,0,,64,0,64,64,0,64,1,64,64,Tue Dec  5 10:22:00 2023,A template containing a practice and an experimental phase,yes,언어학과심리실험_B조_기말과제용심리실험.osexp,C:\Users\caphi\Downloads,no,mono,no,18,no,black,no,no,768,psycho,61,61,0,C:\Users\caphi\Downloads\quickrun.csv,psycho,Lentiform Loewenfeld,3.3.14,no,세금,artifactual,same phoneme,0,None,,x,,s,None,n,0.027499976567924,,714.4634999567643,,576.4024000382051,0.027499976567924,747.0305000897497,2,psycho,1024,2,48000,-16,experiment,999,odd,세포,natural,,135433.20859991945,17501.452299999073,17501.336699933745,,16785.595200024545,11573.952300008386,17500.788199948147,,134693.96780000534,11606.920299935156,136289.44039996713,136289.9428999517,12183.994699968023,134908.7686999701,,135541.1627999274,134677.18519992195,Extended template,0,1.6029007965698838,62,yes,1024
0,0,0.0258762027240461,0.0258762027240461,white,yes,psycho,psycho,psycho,0,uniform,0,undefined,0,n,1,0,65,1,1,0,0,0,0,,65,0,65,65,0,65,1,65,65,Tue Dec  5 10:22:00 2023,A template containing a practice and an experimental phase,yes,언어학과심리실험_B조_기말과제용심리실험.osexp,C:\Users\caphi\Downloads,no,mono,no,18,no,black,no,no,768,psycho,62,62,0,C:\Users\caphi\Downloads\quickrun.csv,psycho,Lentiform Loewenfeld,3.3.14,no,멜블옴,non-word,non-word,0,None,,x,,s,None,n,0.0272999750450253,,714.4634999567643,,576.4024000382051,0.0272999750450253,896.2312999647111,2,psycho,1024,2,48000,-16,experiment,999,odd,폭포,natural,,137191.22449995484,17501.452299999073,17501.336699933745,,16785.595200024545,11573.952300008386,17500.788199948147,,136428.34129999392,11606.920299935156,138213.35249999538,138213.89659994747,12183.994699968023,136658.4154999582,,137315.83229999524,136408.432599972,Extended template,0,1.6302007716149092,63,yes,1024
0,0,0.0258359486906556,0.0258359486906556,white,yes,psycho,psycho,psycho,0,uniform,0,undefined,0,n,1,0,66,1,1,0,0,0,0,,66,0,66,66,0,66,1,66,66,Tue Dec  5 10:22:00 2023,A template containing a practice and an experimental phase,yes,언어학과심리실험_B조_기말과제용심리실험.osexp,C:\Users\caphi\Downloads,no,mono,no,18,no,black,no,no,768,psycho,63,63,0,C:\Users\caphi\Downloads\quickrun.csv,psycho,Lentiform Loewenfeld,3.3.14,no,소방서,artifactual,same phoneme,0,None,,x,,s,None,n,0.0232999445870518,,714.4634999567643,,576.4024000382051,0.0232999445870518,691.457400098443,2,psycho,1024,2,48000,-16,experiment,999,odd,소나무,natural,,139107.79969999567,17501.452299999073,17501.336699933745,,16785.595200024545,11573.952300008386,17500.788199948147,,138370.2704999596,11606.920299935156,139944.04570001643,139944.50230000075,12183.994699968023,138601.41589993145,,139251.4262999175,138337.85040001385,Extended template,0,1.653500716201961,64,yes,1024
0,0,0.0258907801113449,0.0258907801113449,white,yes,psycho,psycho,psycho,0,uniform,0,undefined,0,a,1,0,67,1,1,0,0,0,0,,67,0,67,67,0,67,1,67,67,Tue Dec  5 10:22:00 2023,A template containing a practice and an experimental phase,yes,언어학과심리실험_B조_기말과제용심리실험.osexp,C:\Users\caphi\Downloads,no,mono,no,18,no,black,no,no,768,psycho,64,64,0,C:\Users\caphi\Downloads\quickrun.csv,psycho,Lentiform Loewenfeld,3.3.14,no,키보드,artifactual,similar-environmental,0,None,,x,,s,None,a,0.0293999910354614,,714.4634999567643,,576.4024000382051,0.0293999910354614,661.7613999405876,2,psycho,1024,2,48000,-16,experiment,999,odd,컴퓨터,artifactual,,140857.61239996646,17501.452299999073,17501.336699933745,,16785.595200024545,11573.952300008386,17500.788199948147,,140087.2502999846,11606.920299935156,141654.49179999996,141655.04560002591,12183.994699968023,140322.99249991775,,140991.48289998993,140054.44540001918,Extended template,0,1.6829007072374225,65,yes,1024
0,0,0.0258242538565713,0.0258242538565713,white,yes,psycho,psycho,psycho,0,uniform,0,undefined,0,x,1,0,68,1,1,0,0,0,0,,68,0,68,68,0,68,1,68,68,Tue Dec  5 10:22:00 2023,A template containing a practice and an experimental phase,yes,언어학과심리실험_B조_기말과제용심리실험.osexp,C:\Users\caphi\Downloads,no,mono,no,18,no,black,no,no,768,psycho,65,65,0,C:\Users\caphi\Downloads\quickrun.csv,psycho,Lentiform Loewenfeld,3.3.14,no,냉장고,artifactual,non-word,0,None,,x,,s,None,x,0.0215000472962856,,714.4634999567643,,576.4024000382051,0.0215000472962856,850.5152000579983,2,psycho,1024,2,48000,-16,experiment,999,odd,로방삭,non-word,,142525.69969999604,17501.452299999073,17501.336699933745,,16785.595200024545,11573.952300008386,17500.788199948147,,141777.665099944,11606.920299935156,143503.35379992612,143503.84369993117,12183.994699968023,142007.9993000254,,142651.75139997154,141767.14749995153,Extended template,0,1.704400754533708,66,yes,1024
0,0,0.0258373242538811,0.0258373242538811,white,yes,psycho,psycho,psycho,0,uniform,0,undefined,0,n,1,0,69,1,1,0,0,0,0,,69,0,69,69,0,69,1,69,69,Tue Dec  5 10:22:00 2023,A template containing a practice and an experimental phase,yes,언어학과심리실험_B조_기말과제용심리실험.osexp,C:\Users\caphi\Downloads,no,mono,no,18,no,black,no,no,768,psycho,66,66,0,C:\Users\caphi\Downloads\quickrun.csv,psycho,Lentiform Loewenfeld,3.3.14,no,패딩,artifactual,similar-environmental,0,None,,x,,s,None,n,0.0266999704763293,,714.4634999567643,,576.4024000382051,0.0266999704763293,744.8893999680877,2,psycho,1024,2,48000,-16,experiment,999,odd,겨울,natural,,144374.84389997553,17501.452299999073,17501.336699933745,,16785.595200024545,11573.952300008386,17500.788199948147,,143627.07129993942,11606.920299935156,145246.30040000193,145246.80590000935,12183.994699968023,143849.56419991795,,144500.35119999666,143612.47389996424,Extended template,0,1.7311007250100374,67,yes,1024
0,0,0.0257882467635414,0.0257882467635414,white,yes,psycho,psycho,psycho,0,uniform,0,undefined,0,a,1,0,70,1,1,0,0,0,0,,70,0,70,70,0,70,1,70,70,Tue Dec  5 10:22:00 2023,A template containing a practice and an experimental phase,yes,언어학과심리실험_B조_기말과제용심리실험.osexp,C:\Users\caphi\Downloads,no,mono,no,18,no,black,no,no,768,psycho,67,67,0,C:\Users\caphi\Downloads\quickrun.csv,psycho,Lentiform Loewenfeld,3.3.14,no,해변,natural,similar-environmental,0,None,,x,,s,None,a,0.022500054910779,,714.4634999567643,,576.4024000382051,0.022500054910779,987.2768999775872,2,psycho,1024,2,48000,-16,experiment,999,odd,파라솔,artifactual,,146125.40110002735,17501.452299999073,17501.336699933745,,16785.595200024545,11573.952300008386,17500.788199948147,,145394.49789992068,11606.920299935156,147238.84799994994,147239.34610001743,12183.994699968023,145608.70370001066,,146250.50690001808,145377.35999992583,Extended template,0,1.7536007799208164,68,yes,1024
0,0,0.025795663005092,0.025795663005092,white,yes,psycho,psycho,psycho,0,uniform,0,undefined,0,a,1,0,71,1,1,0,0,0,0,,71,0,71,71,0,71,1,71,71,Tue Dec  5 10:22:00 2023,A template containing a practice and an experimental phase,yes,언어학과심리실험_B조_기말과제용심리실험.osexp,C:\Users\caphi\Downloads,no,mono,no,18,no,black,no,no,768,psycho,68,68,0,C:\Users\caphi\Downloads\quickrun.csv,psycho,Lentiform Loewenfeld,3.3.14,no,호수,natural,no-correlation,0,None,,x,,s,None,a,0.0262999674305319,,714.4634999567643,,576.4024000382051,0.0262999674305319,1080.344400019385,2,psycho,1024,2,48000,-16,experiment,999,odd,화장실,artifactual,,148124.807999935,17501.452299999073,17501.336699933745,,16785.595200024545,11573.952300008386,17500.788199948147,,147382.6132999966,11606.920299935156,149323.66929994896,149324.21879994217,12183.994699968023,147609.43199996836,,148242.16999998316,147351.85289999936,Extended template,0,1.7799007473513484,69,yes,1024
0,0,0.0257500098086893,0.0257500098086893,white,yes,psycho,psycho,psycho,0,uniform,0,undefined,0,a,1,0,72,1,1,0,0,0,0,,72,0,72,72,0,72,1,72,72,Tue Dec  5 10:22:00 2023,A template containing a practice and an experimental phase,yes,언어학과심리실험_B조_기말과제용심리실험.osexp,C:\Users\caphi\Downloads,no,mono,no,18,no,black,no,no,768,psycho,69,69,0,C:\Users\caphi\Downloads\quickrun.csv,psycho,Lentiform Loewenfeld,3.3.14,no,안음풍,non-word,non-word,0,None,,x,,s,None,a,0.0225999392569065,,714.4634999567643,,576.4024000382051,0.0225999392569065,724.3956999154761,2,psycho,1024,2,48000,-16,experiment,999,odd,의자,artifactual,,150225.43069999665,17501.452299999073,17501.336699933745,,16785.595200024545,11573.952300008386,17500.788199948147,,149460.85619996302,11606.920299935156,151076.53580000624,151077.0230999915,12183.994699968023,149691.41909992322,,150351.0766000254,149443.67700000294,Extended template,0,1.802500686608255,70,yes,1024
0,0,0.0259070509624942,0.0259070509624942,white,yes,psycho,psycho,psycho,0,uniform,0,undefined,0,n,1,0,73,1,1,0,0,0,0,,73,0,73,73,0,73,1,73,73,Tue Dec  5 10:22:00 2023,A template containing a practice and an experimental phase,yes,언어학과심리실험_B조_기말과제용심리실험.osexp,C:\Users\caphi\Downloads,no,mono,no,18,no,black,no,no,768,psycho,70,70,0,C:\Users\caphi\Downloads\quickrun.csv,psycho,Lentiform Loewenfeld,3.3.14,no,꽃,natural,inclusive,0,None,,x,,s,None,n,0.0368999317288398,,714.4634999567643,,576.4024000382051,0.0368999317288398,694.6650999598205,2,psycho,1024,2,48000,-16,experiment,999,odd,해바라기,natural,,151984.8984000273,17501.452299999073,17501.336699933745,,16785.595200024545,11573.952300008386,17500.788199948147,,151220.7739999285,11606.920299935156,152787.167100003,152787.75889996905,12183.994699968023,151458.01950001623,,152091.2138000131,151188.35159996524,Extended template,0,1.8394006183370948,71,yes,1024
0,0,0.0259555640190632,0.0259555640190632,white,yes,psycho,psycho,psycho,0,uniform,0,undefined,0,a,0,0,74,1,1,0,0,0,0,,74,0,74,74,0,74,1,74,74,Tue Dec  5 10:22:00 2023,A template containing a practice and an experimental phase,yes,언어학과심리실험_B조_기말과제용심리실험.osexp,C:\Users\caphi\Downloads,no,mono,no,18,no,black,no,no,768,psycho,71,71,0,C:\Users\caphi\Downloads\quickrun.csv,psycho,Lentiform Loewenfeld,3.3.14,no,바다,natural,similar-environmental,0,None,,x,,s,None,n,0.0293999910354614,,714.4634999567643,,576.4024000382051,0.0293999910354614,899.6108999708667,2,psycho,1024,2,48000,-16,experiment,999,odd,배,artifactual,,153659.09149998333,17501.452299999073,17501.336699933745,,16785.595200024545,11573.952300008386,17500.788199948147,,152919.95749995112,11606.920299935156,154685.19510002807,154685.75830000918,12183.994699968023,153142.2753999941,,153784.29590002634,152900.78589995392,Extended template,0,1.868800609372556,72,yes,1024
0,0,0.0259109680247429,0.0259109680247429,white,yes,psycho,psycho,psycho,0,uniform,0,undefined,0,n,1,0,75,1,1,0,0,0,0,,75,0,75,75,0,75,1,75,75,Tue Dec  5 10:22:00 2023,A template containing a practice and an experimental phase,yes,언어학과심리실험_B조_기말과제용심리실험.osexp,C:\Users\caphi\Downloads,no,mono,no,18,no,black,no,no,768,psycho,72,72,0,C:\Users\caphi\Downloads\quickrun.csv,psycho,Lentiform Loewenfeld,3.3.14,no,의자,artifactual,no-correlation,0,None,,x,,s,None,n,0.0227000564336776,,714.4634999567643,,576.4024000382051,0.0227000564336776,1053.3789000473917,2,psycho,1024,2,48000,-16,experiment,999,odd,행성,natural,,155558.89109999407,17501.452299999073,17501.336699933745,,16785.595200024545,11573.952300008386,17500.788199948147,,154828.5673999926,11606.920299935156,156729.52089994214,156730.03350000363,12183.994699968023,155051.07839999255,,155675.01449992415,154794.61849993095,Extended template,0,1.8915006658062337,73,yes,1024
0,0,0.0258756839242335,0.0258756839242335,white,yes,psycho,psycho,psycho,0,uniform,0,undefined,0,n,1,0,76,1,1,0,0,0,0,,76,0,76,76,0,76,1,76,76,Tue Dec  5 10:22:00 2023,A template containing a practice and an experimental phase,yes,언어학과심리실험_B조_기말과제용심리실험.osexp,C:\Users\caphi\Downloads,no,mono,no,18,no,black,no,no,768,psycho,73,73,0,C:\Users\caphi\Downloads\quickrun.csv,psycho,Lentiform Loewenfeld,3.3.14,no,언덕,natural,no-correlation,0,None,,x,,s,None,n,0.0232999445870518,,714.4634999567643,,576.4024000382051,0.0232999445870518,722.8983999229968,2,psycho,1024,2,48000,-16,experiment,999,odd,고양이,natural,,157591.719500022,17501.452299999073,17501.336699933745,,16785.595200024545,11573.952300008386,17500.788199948147,,156860.80629995558,11606.920299935156,158448.90590000432,158449.4168999372,12183.994699968023,157075.07319992874,,157724.82070000842,156842.64429996256,Extended template,0,1.9148006103932855,74,yes,1024
0,0,0.025961340094606,0.025961340094606,white,yes,psycho,psycho,psycho,0,uniform,0,undefined,0,a,1,0,77,1,1,0,0,0,0,,77,0,77,77,0,77,1,77,77,Tue Dec  5 10:22:00 2023,A template containing a practice and an experimental phase,yes,언어학과심리실험_B조_기말과제용심리실험.osexp,C:\Users\caphi\Downloads,no,mono,no,18,no,black,no,no,768,psycho,74,74,0,C:\Users\caphi\Downloads\quickrun.csv,psycho,Lentiform Loewenfeld,3.3.14,no,악어,natural,same phoneme,0,None,,x,,s,None,a,0.0322998967021703,,714.4634999567643,,576.4024000382051,0.0322998967021703,851.7485000193119,2,psycho,1024,2,48000,-16,experiment,999,odd,악기,artifactual,,159358.08459995314,17501.452299999073,17501.336699933745,,16785.595200024545,11573.952300008386,17500.788199948147,,158605.0619999878,11606.920299935156,160328.38780002203,160328.92869994976,12183.994699968023,158833.98120000493,,159475.5430999212,158571.76670001354,Extended template,0,1.947100507095456,75,yes,1024
0,0,0.025915796868503,0.025915796868503,white,yes,psycho,psycho,psycho,0,uniform,0,undefined,0,x,1,0,78,1,1,0,0,0,0,,78,0,78,78,0,78,1,78,78,Tue Dec  5 10:22:00 2023,A template containing a practice and an experimental phase,yes,언어학과심리실험_B조_기말과제용심리실험.osexp,C:\Users\caphi\Downloads,no,mono,no,18,no,black,no,no,768,psycho,75,75,0,C:\Users\caphi\Downloads\quickrun.csv,psycho,Lentiform Loewenfeld,3.3.14,no,절벽,natural,non-word,0,None,,x,,s,None,x,0.022500054910779,,714.4634999567643,,576.4024000382051,0.022500054910779,916.3504999596626,2,psycho,1024,2,48000,-16,experiment,999,odd,물로프,non-word,,161234.18939998373,17501.452299999073,17501.336699933745,,16785.595200024545,11573.952300008386,17500.788199948147,,160478.24209998362,11606.920299935156,162258.79969995003,162259.3047999544,12183.994699968023,160718.08699995745,,161341.31759998854,160443.01219994668,Extended template,0,1.9696005620062351,76,yes,1024
0,0,0.0258779301392761,0.0258779301392761,white,yes,psycho,psycho,psycho,0,uniform,0,undefined,0,a,1,0,79,1,1,0,0,0,0,,79,0,79,79,0,79,1,79,79,Tue Dec  5 10:22:00 2023,A template containing a practice and an experimental phase,yes,언어학과심리실험_B조_기말과제용심리실험.osexp,C:\Users\caphi\Downloads,no,mono,no,18,no,black,no,no,768,psycho,76,76,0,C:\Users\caphi\Downloads\quickrun.csv,psycho,Lentiform Loewenfeld,3.3.14,no,영화,artifactual,similar-environmental,0,None,,x,,s,None,a,0.0230000587180256,,714.4634999567643,,576.4024000382051,0.0230000587180256,1546.191200031899,2,psycho,1024,2,48000,-16,experiment,999,odd,드라마,artifactual,,163157.97529998235,17501.452299999073,17501.336699933745,,16785.595200024545,11573.952300008386,17500.788199948147,,162406.11939993687,11606.920299935156,164823.36119993124,164823.8893999951,12183.994699968023,162625.89449994266,,163276.07999998145,162370.35129999276,Extended template,0,1.9926006207242608,77,yes,1024
0,0,0.0259025717894427,0.0259025717894427,white,yes,psycho,psycho,psycho,0,uniform,0,undefined,0,n,1,0,80,1,1,0,0,0,0,,80,0,80,80,0,80,1,80,80,Tue Dec  5 10:22:00 2023,A template containing a practice and an experimental phase,yes,언어학과심리실험_B조_기말과제용심리실험.osexp,C:\Users\caphi\Downloads,no,mono,no,18,no,black,no,no,768,psycho,77,77,0,C:\Users\caphi\Downloads\quickrun.csv,psycho,Lentiform Loewenfeld,3.3.14,no,얼음,natural,no-correlation,0,None,,x,,s,None,n,0.027799978852272,,714.4634999567643,,576.4024000382051,0.027799978852272,695.6985999131575,2,psycho,1024,2,48000,-16,experiment,999,odd,돌,natural,,165692.41919997148,17501.452299999073,17501.336699933745,,16785.595200024545,11573.952300008386,17500.788199948147,,164944.9755999958,11606.920299935156,166514.1280000098,166514.70759999938,12183.994699968023,165175.41020002682,,165817.12080002762,164935.36340002902,Extended template,0,2.020400599576533,78,yes,1024
0,0,0.0258557044582653,0.0258557044582653,white,yes,psycho,psycho,psycho,0,uniform,0,undefined,0,a,1,0,81,1,1,0,0,0,0,,81,0,81,81,0,81,1,81,81,Tue Dec  5 10:22:00 2023,A template containing a practice and an experimental phase,yes,언어학과심리실험_B조_기말과제용심리실험.osexp,C:\Users\caphi\Downloads,no,mono,no,18,no,black,no,no,768,psycho,78,78,0,C:\Users\caphi\Downloads\quickrun.csv,psycho,Lentiform Loewenfeld,3.3.14,no,옷,artifactual,inclusive,0,None,,x,,s,None,a,0.0222000526264309,,714.4634999567643,,576.4024000382051,0.0222000526264309,711.7155999876559,2,psycho,1024,2,48000,-16,experiment,999,odd,코트,artifactual,,167418.63849991933,17501.452299999073,17501.336699933745,,16785.595200024545,11573.952300008386,17500.788199948147,,166678.33599995356,11606.920299935156,168254.36229992192,168254.88909997512,12183.994699968023,166892.07549998537,,167541.39299993403,166642.4978999421,Extended template,0,2.042600652202964,79,yes,1024
0,0,0.0260050073848105,0.0260050073848105,white,yes,psycho,psycho,psycho,0,uniform,0,undefined,0,a,1,0,82,1,1,0,0,0,0,,82,0,82,82,0,82,1,82,82,Tue Dec  5 10:22:00 2023,A template containing a practice and an experimental phase,yes,언어학과심리실험_B조_기말과제용심리실험.osexp,C:\Users\caphi\Downloads,no,mono,no,18,no,black,no,no,768,psycho,79,79,0,C:\Users\caphi\Downloads\quickrun.csv,psycho,Lentiform Loewenfeld,3.3.14,no,구름,natural,same phoneme,0,None,,x,,s,None,a,0.0377999385818839,,714.4634999567643,,576.4024000382051,0.0377999385818839,787.4538999749348,2,psycho,1024,2,48000,-16,experiment,999,odd,구두,artifactual,,169116.79899995215,17501.452299999073,17501.336699933745,,16785.595200024545,11573.952300008386,17500.788199948147,,168378.64250002895,11606.920299935156,170014.47799999733,170015.17079991754,12183.994699968023,168592.3143000109,,169225.45739996713,168367.44850000832,Extended template,0,2.080400590784848,80,yes,1024
0,0,0.0259679092531218,0.0259679092531218,white,yes,psycho,psycho,psycho,0,uniform,0,undefined,0,a,1,0,83,1,1,0,0,0,0,,83,0,83,83,0,83,1,83,83,Tue Dec  5 10:22:00 2023,A template containing a practice and an experimental phase,yes,언어학과심리실험_B조_기말과제용심리실험.osexp,C:\Users\caphi\Downloads,no,mono,no,18,no,black,no,no,768,psycho,80,80,0,C:\Users\caphi\Downloads\quickrun.csv,psycho,Lentiform Loewenfeld,3.3.14,no,컴퓨터,artifactual,similar-environmental,0,None,,x,,s,None,a,0.0230000587180256,,714.4634999567643,,576.4024000382051,0.0230000587180256,626.4344999799505,2,psycho,1024,2,48000,-16,experiment,999,odd,키보드,artifactual,,170925.69930001628,17501.452299999073,17501.336699933745,,16785.595200024545,11573.952300008386,17500.788199948147,,170162.2160000261,11606.920299935156,171669.32609991636,171669.9298999738,12183.994699968023,170391.99819997884,,171041.71589994803,170128.12200002372,Extended template,0,2.1034006495028734,81,yes,1024
0,0,0.0259195193194034,0.0259195193194034,white,yes,psycho,psycho,psycho,0,uniform,0,undefined,0,a,1,0,84,1,1,0,0,0,0,,84,0,84,84,0,84,1,84,84,Tue Dec  5 10:22:00 2023,A template containing a practice and an experimental phase,yes,언어학과심리실험_B조_기말과제용심리실험.osexp,C:\Users\caphi\Downloads,no,mono,no,18,no,black,no,no,768,psycho,81,81,0,C:\Users\caphi\Downloads\quickrun.csv,psycho,Lentiform Loewenfeld,3.3.14,no,로켓,artifactual,same phoneme,0,None,,x,,s,None,a,0.0219999346882104,,714.4634999567643,,576.4024000382051,0.0219999346882104,723.0847000610083,2,psycho,1024,2,48000,-16,experiment,999,odd,로봇,artifactual,,172526.12389996648,17501.452299999073,17501.336699933745,,16785.595200024545,11573.952300008386,17500.788199948147,,171795.31830002088,11606.920299935156,173393.53270002175,173394.0877999412,12183.994699968023,172017.676700023,,172669.24119996838,171782.8590000281,Extended template,0,2.125400584191084,82,yes,1024
0,0,0.025877114721989,0.025877114721989,white,yes,psycho,psycho,psycho,0,uniform,0,undefined,0,a,1,0,85,1,1,0,0,0,0,,85,0,85,85,0,85,1,85,85,Tue Dec  5 10:22:00 2023,A template containing a practice and an experimental phase,yes,언어학과심리실험_B조_기말과제용심리실험.osexp,C:\Users\caphi\Downloads,no,mono,no,18,no,black,no,no,768,psycho,82,82,0,C:\Users\caphi\Downloads\quickrun.csv,psycho,Lentiform Loewenfeld,3.3.14,no,바다,natural,same phoneme,0,None,,x,,s,None,a,0.0223999377340078,,714.4634999567643,,576.4024000382051,0.0223999377340078,870.9837000351399,2,psycho,1024,2,48000,-16,experiment,999,odd,바닥,artifactual,,174275.24889993947,17501.452299999073,17501.336699933745,,16785.595200024545,11573.952300008386,17500.788199948147,,173528.63549999893,11606.920299935156,175264.79739998467,175265.33790002577,12183.994699968023,173749.41359995864,,174392.64829992317,173502.47950002085,Extended template,0,2.147800521925092,83,yes,1024
0,0,0.0258964358917659,0.0258964358917659,white,yes,psycho,psycho,psycho,0,uniform,0,undefined,0,n,1,0,86,1,1,0,0,0,0,,86,0,86,86,0,86,1,86,86,Tue Dec  5 10:22:00 2023,A template containing a practice and an experimental phase,yes,언어학과심리실험_B조_기말과제용심리실험.osexp,C:\Users\caphi\Downloads,no,mono,no,18,no,black,no,no,768,psycho,83,83,0,C:\Users\caphi\Downloads\quickrun.csv,psycho,Lentiform Loewenfeld,3.3.14,no,숲,natural,inclusive,0,None,,x,,s,None,n,0.0275000929832458,,714.4634999567643,,576.4024000382051,0.0275000929832458,654.1339000687003,2,psycho,1024,2,48000,-16,experiment,999,odd,나무,natural,,176142.4688999541,17501.452299999073,17501.336699933745,,16785.595200024545,11573.952300008386,17500.788199948147,,175394.77639994584,11606.920299935156,176914.55809993204,176915.23879999295,12183.994699968023,175618.66539996117,,176258.84259992745,175376.05710001662,Extended template,0,2.1753006149083376,84,yes,1024
0,0,0.0259047141298651,0.0259047141298651,white,yes,psycho,psycho,psycho,0,uniform,0,undefined,0,n,1,0,87,1,1,0,0,0,0,,87,0,87,87,0,87,1,87,87,Tue Dec  5 10:22:00 2023,A template containing a practice and an experimental phase,yes,언어학과심리실험_B조_기말과제용심리실험.osexp,C:\Users\caphi\Downloads,no,mono,no,18,no,black,no,no,768,psycho,84,84,0,C:\Users\caphi\Downloads\quickrun.csv,psycho,Lentiform Loewenfeld,3.3.14,no,밤하늘,natural,no-correlation,0,None,,x,,s,None,n,0.0266000861302018,,714.4634999567643,,576.4024000382051,0.0266000861302018,1125.9122000774369,2,psycho,1024,2,48000,-16,experiment,999,odd,바위,natural,,177792.165699997,17501.452299999073,17501.336699933745,,16785.595200024545,11573.952300008386,17500.788199948147,,177045.18919996917,11606.920299935156,179043.77789993305,179044.4271999877,12183.994699968023,177275.9571999777,,177916.7438999284,177023.3124999795,Extended template,0,2.2019007010385394,85,yes,1024
0,0,0.025889542506098,0.025889542506098,white,yes,psycho,psycho,psycho,0,uniform,0,undefined,0,n,1,0,88,1,1,0,0,0,0,,88,0,88,88,0,88,1,88,88,Tue Dec  5 10:22:00 2023,A template containing a practice and an experimental phase,yes,언어학과심리실험_B조_기말과제용심리실험.osexp,C:\Users\caphi\Downloads,no,mono,no,18,no,black,no,no,768,psycho,85,85,0,C:\Users\caphi\Downloads\quickrun.csv,psycho,Lentiform Loewenfeld,3.3.14,no,구두,artifactual,same phoneme,0,None,,x,,s,None,n,0.0245999544858932,,714.4634999567643,,576.4024000382051,0.0245999544858932,628.7542999489233,2,psycho,1024,2,48000,-16,experiment,999,odd,구름,natural,,179925.2818999812,17501.452299999073,17501.336699933745,,16785.595200024545,11573.952300008386,17500.788199948147,,179179.4161000289,11606.920299935156,180680.8331999928,180681.3994999975,12183.994699968023,179408.5246999748,,180050.56010000408,179154.63779994752,Extended template,0,2.2265006555244327,86,yes,1024
0,0,0.0258402379722088,0.0258402379722088,white,yes,psycho,psycho,psycho,0,uniform,0,undefined,0,n,1,0,89,1,1,0,0,0,0,,89,0,89,89,0,89,1,89,89,Tue Dec  5 10:22:00 2023,A template containing a practice and an experimental phase,yes,언어학과심리실험_B조_기말과제용심리실험.osexp,C:\Users\caphi\Downloads,no,mono,no,18,no,black,no,no,768,psycho,86,86,0,C:\Users\caphi\Downloads\quickrun.csv,psycho,Lentiform Loewenfeld,3.3.14,no,오일,natural,same phoneme,0,None,,x,,s,None,n,0.0216000480577349,,714.4634999567643,,576.4024000382051,0.0216000480577349,597.8037000168115,2,psycho,1024,2,48000,-16,experiment,999,odd,오리,natural,,181574.783799937,17501.452299999073,17501.336699933745,,16785.595200024545,11573.952300008386,17500.788199948147,,180827.8649999993,11606.920299935156,182299.91209995933,182300.47070002183,12183.994699968023,181050.621900009,,181700.8214999223,180796.9504999928,Extended template,0,2.248100703582168,87,yes,1024
0,0,0.0258045527681877,0.0258045527681877,white,yes,psycho,psycho,psycho,0,uniform,0,undefined,0,a,1,0,90,1,1,0,0,0,0,,90,0,90,90,0,90,1,90,90,Tue Dec  5 10:22:00 2023,A template containing a practice and an experimental phase,yes,언어학과심리실험_B조_기말과제용심리실험.osexp,C:\Users\caphi\Downloads,no,mono,no,18,no,black,no,no,768,psycho,87,87,0,C:\Users\caphi\Downloads\quickrun.csv,psycho,Lentiform Loewenfeld,3.3.14,no,학적,artifactual,same phoneme,0,None,,x,,s,None,a,0.0226999400183558,,714.4634999567643,,576.4024000382051,0.0226999400183558,856.3902999740094,2,psycho,1024,2,48000,-16,experiment,999,odd,학술,artifactual,,183184.1955999844,17501.452299999073,17501.336699933745,,16785.595200024545,11573.952300008386,17500.788199948147,,182428.45419992227,11606.920299935156,184150.14849998988,184150.7592999842,12183.994699968023,182658.87289994865,,183292.5921999849,182409.28040002476,Extended template,0,2.2708006436005235,88,yes,1024
0,0,0.0257764111032311,0.0257764111032311,white,yes,psycho,psycho,psycho,0,uniform,0,undefined,0,a,1,0,91,1,1,0,0,0,0,,91,0,91,91,0,91,1,91,91,Tue Dec  5 10:22:00 2023,A template containing a practice and an experimental phase,yes,언어학과심리실험_B조_기말과제용심리실험.osexp,C:\Users\caphi\Downloads,no,mono,no,18,no,black,no,no,768,psycho,88,88,0,C:\Users\caphi\Downloads\quickrun.csv,psycho,Lentiform Loewenfeld,3.3.14,no,피자,artifactual,similar-environmental,0,None,,x,,s,None,a,0.0232999445870518,,714.4634999567643,,576.4024000382051,0.0232999445870518,735.5451999465004,2,psycho,1024,2,48000,-16,experiment,999,odd,파스타,artifactual,,185041.55179997903,17501.452299999073,17501.336699933745,,16785.595200024545,11573.952300008386,17500.788199948147,,184288.1069999421,11606.920299935156,185904.59789999292,185905.233199941,12183.994699968023,184518.30479991625,,185167.9320000112,184260.28349995613,Extended template,0,2.294100588187576,89,yes,1024
0,0,0.0257655628956854,0.0257655628956854,white,yes,psycho,psycho,psycho,0,uniform,0,undefined,0,x,1,0,92,1,1,0,0,0,0,,92,0,92,92,0,92,1,92,92,Tue Dec  5 10:22:00 2023,A template containing a practice and an experimental phase,yes,언어학과심리실험_B조_기말과제용심리실험.osexp,C:\Users\caphi\Downloads,no,mono,no,18,no,black,no,no,768,psycho,89,89,0,C:\Users\caphi\Downloads\quickrun.csv,psycho,Lentiform Loewenfeld,3.3.14,no,폭풍,natural,non-word,0,None,,x,,s,None,x,0.0248000724241137,,714.4634999567643,,576.4024000382051,0.0248000724241137,807.4324999470264,2,psycho,1024,2,48000,-16,experiment,999,odd,섬강,non-word,,186759.5573000144,17501.452299999073,17501.336699933745,,16785.595200024545,11573.952300008386,17500.788199948147,,186028.26339995957,11606.920299935156,187693.02519992925,187693.62799997907,12183.994699968023,186250.9716999484,,186884.1460000258,186015.43499995023,Extended template,0,2.318900660611689,90,yes,1024
0,0,0.0257978093001868,0.0257978093001868,white,yes,psycho,psycho,psycho,0,uniform,0,undefined,0,a,1,0,93,1,1,0,0,0,0,,93,0,93,93,0,93,1,93,93,Tue Dec  5 10:22:00 2023,A template containing a practice and an experimental phase,yes,언어학과심리실험_B조_기말과제용심리실험.osexp,C:\Users\caphi\Downloads,no,mono,no,18,no,black,no,no,768,psycho,90,90,0,C:\Users\caphi\Downloads\quickrun.csv,psycho,Lentiform Loewenfeld,3.3.14,no,경주,artifactual,no-correlation,0,None,,x,,s,None,a,0.028699985705316,,714.4634999567643,,576.4024000382051,0.028699985705316,749.8487000120804,2,psycho,1024,2,48000,-16,experiment,999,odd,버스,artifactual,,188541.74999997485,17501.452299999073,17501.336699933745,,16785.595200024545,11573.952300008386,17500.788199948147,,187811.6120999912,11606.920299935156,189419.46769994684,189420.2042999677,12183.994699968023,188025.12559993195,,188668.32229995637,187801.51050002317,Extended template,0,2.347600646317005,91,yes,1024
0,0,0.0257684859325704,0.0257684859325704,white,yes,psycho,psycho,psycho,0,uniform,0,undefined,0,a,1,0,94,1,1,0,0,0,0,,94,0,94,94,0,94,1,94,94,Tue Dec  5 10:22:00 2023,A template containing a practice and an experimental phase,yes,언어학과심리실험_B조_기말과제용심리실험.osexp,C:\Users\caphi\Downloads,no,mono,no,18,no,black,no,no,768,psycho,91,91,0,C:\Users\caphi\Downloads\quickrun.csv,psycho,Lentiform Loewenfeld,3.3.14,no,플피,non-word,non-word,0,None,,x,,s,None,a,0.023100059479475,,714.4634999567643,,576.4024000382051,0.023100059479475,1936.1725999042392,2,psycho,1024,2,48000,-16,experiment,999,odd,책상,artifactual,,190275.31129994892,17501.452299999073,17501.336699933745,,16785.595200024545,11573.952300008386,17500.788199948147,,189545.8343999926,11606.920299935156,192329.23659996595,192329.824400018,12183.994699968023,189759.34909994248,,190391.88200002536,189528.11319998,Extended template,0,2.37070070579648,92,yes,1024
0,0,0.0257408672002374,0.0257408672002374,white,yes,psycho,psycho,psycho,0,uniform,0,undefined,0,a,1,0,95,1,1,0,0,0,0,,95,0,95,95,0,95,1,95,95,Tue Dec  5 10:22:00 2023,A template containing a practice and an experimental phase,yes,언어학과심리실험_B조_기말과제용심리실험.osexp,C:\Users\caphi\Downloads,no,mono,no,18,no,black,no,no,768,psycho,92,92,0,C:\Users\caphi\Downloads\quickrun.csv,psycho,Lentiform Loewenfeld,3.3.14,no,성냥,artifactual,same phoneme,0,None,,x,,s,None,a,0.0231999438256025,,714.4634999567643,,576.4024000382051,0.0231999438256025,2915.2497000759467,2,psycho,1024,2,48000,-16,experiment,999,odd,성적표,artifactual,,193200.08480001707,17501.452299999073,17501.336699933745,,16785.595200024545,11573.952300008386,17500.788199948147,,192462.23559998907,11606.920299935156,196225.8766000159,196226.52869997543,12183.994699968023,192675.44379993345,,193309.24919992685,192433.8249999564,Extended template,0,2.3939006496220827,93,yes,1024
0,0,0.0256936244191007,0.0256936244191007,white,yes,psycho,psycho,psycho,0,uniform,0,undefined,0,a,1,0,96,1,1,0,0,0,0,,96,0,96,96,0,96,1,96,96,Tue Dec  5 10:22:00 2023,A template containing a practice and an experimental phase,yes,언어학과심리실험_B조_기말과제용심리실험.osexp,C:\Users\caphi\Downloads,no,mono,no,18,no,black,no,no,768,psycho,93,93,0,C:\Users\caphi\Downloads\quickrun.csv,psycho,Lentiform Loewenfeld,3.3.14,no,종이,artifactual,similar-environmental,0,None,,x,,s,None,a,0.0213000457733869,,714.4634999567643,,576.4024000382051,0.0213000457733869,728.2411000924185,2,psycho,1024,2,48000,-16,experiment,999,odd,프린터,artifactual,,197075.69490000608,17501.452299999073,17501.336699933745,,16785.595200024545,11573.952300008386,17500.788199948147,,196345.20390001129,11606.920299935156,197921.19329993147,197921.7955999775,12183.994699968023,196567.81899998896,,197191.7562999297,196331.7193000112,Extended template,0,2.4152006953954697,94,yes,1024
0,0,0.0256431656644532,0.0256431656644532,white,yes,psycho,psycho,psycho,0,uniform,0,undefined,0,a,1,0,97,1,1,0,0,0,0,,97,0,97,97,0,97,1,97,97,Tue Dec  5 10:22:00 2023,A template containing a practice and an experimental phase,yes,언어학과심리실험_B조_기말과제용심리실험.osexp,C:\Users\caphi\Downloads,no,mono,no,18,no,black,no,no,768,psycho,94,94,0,C:\Users\caphi\Downloads\quickrun.csv,psycho,Lentiform Loewenfeld,3.3.14,no,모니터,artifactual,same phoneme,0,None,,x,,s,None,a,0.0209000427275896,,714.4634999567643,,576.4024000382051,0.0209000427275896,651.1511999415234,2,psycho,1024,2,48000,-16,experiment,999,odd,모터,artifactual,,198784.9215000169,17501.452299999073,17501.336699933745,,16785.595200024545,11573.952300008386,17500.788199948147,,198045.1619999949,11606.920299935156,199544.54079992135,199545.1452999841,12183.994699968023,198259.23949992284,,198892.1114000259,198030.99889995065,Extended template,0,2.4361007381230597,95,yes,1024
0,0,0.0256093832528373,0.0256093832528373,white,yes,psycho,psycho,psycho,0,uniform,0,undefined,0,n,1,0,98,1,1,0,0,0,0,,98,0,98,98,0,98,1,98,98,Tue Dec  5 10:22:00 2023,A template containing a practice and an experimental phase,yes,언어학과심리실험_B조_기말과제용심리실험.osexp,C:\Users\caphi\Downloads,no,mono,no,18,no,black,no,no,768,psycho,95,95,0,C:\Users\caphi\Downloads\quickrun.csv,psycho,Lentiform Loewenfeld,3.3.14,no,달력,artifactual,same phoneme,0,None,,x,,s,None,n,0.0224000541493296,,714.4634999567643,,576.4024000382051,0.0224000541493296,838.1217999849468,2,psycho,1024,2,48000,-16,experiment,999,odd,달,natural,,200425.6140999496,17501.452299999073,17501.336699933745,,16785.595200024545,11573.952300008386,17500.788199948147,,199678.6553999409,11606.920299935156,201391.1569999764,201391.78049995095,12183.994699968023,199909.04069994576,,200551.77829996683,199659.5076000085,Extended template,0,2.458500792272389,96,yes,1024
0,0,0.0255938220922787,0.0255938220922787,white,yes,psycho,psycho,psycho,0,uniform,0,undefined,0,a,1,0,99,1,1,0,0,0,0,,99,0,99,99,0,99,1,99,99,Tue Dec  5 10:22:00 2023,A template containing a practice and an experimental phase,yes,언어학과심리실험_B조_기말과제용심리실험.osexp,C:\Users\caphi\Downloads,no,mono,no,18,no,black,no,no,768,psycho,96,96,0,C:\Users\caphi\Downloads\quickrun.csv,psycho,Lentiform Loewenfeld,3.3.14,no,바람,natural,similar-environmental,0,None,,x,,s,None,a,0.0240999506786465,,714.4634999567643,,576.4024000382051,0.0240999506786465,611.6678999969736,2,psycho,1024,2,48000,-16,experiment,999,odd,창문,artifactual,,202284.4814999262,17501.452299999073,17501.336699933745,,16785.595200024545,11573.952300008386,17500.788199948147,,201538.2880999241,11606.920299935156,203004.94190002792,203005.5847999174,12183.994699968023,201759.79079992976,,202391.99849998116,201503.4805999603,Extended template,0,2.4826007429510355,97,yes,1024
0,0,0.025554089711941,0.025554089711941,white,yes,psycho,psycho,psycho,0,uniform,0,undefined,0,a,1,0,100,1,1,0,0,0,0,,100,0,100,100,0,100,1,100,100,Tue Dec  5 10:22:00 2023,A template containing a practice and an experimental phase,yes,언어학과심리실험_B조_기말과제용심리실험.osexp,C:\Users\caphi\Downloads,no,mono,no,18,no,black,no,no,768,psycho,97,97,0,C:\Users\caphi\Downloads\quickrun.csv,psycho,Lentiform Loewenfeld,3.3.14,no,전기,natural,similar-environmental,0,None,,x,,s,None,a,0.0217000488191843,,714.4634999567643,,576.4024000382051,0.0217000488191843,593.2695999508724,2,psycho,1024,2,48000,-16,experiment,999,odd,전선,artifactual,,203858.86359994765,17501.452299999073,17501.336699933745,,16785.595200024545,11573.952300008386,17500.788199948147,,203128.4456999274,11606.920299935156,204572.9462999152,204573.62299994568,12183.994699968023,203350.2693999326,,203978.2749000005,203115.51499995403,Extended template,0,2.50430079177022,98,yes,1024
0,0,0.0255313205692653,0.0255313205692653,white,yes,psycho,psycho,psycho,0,uniform,0,undefined,0,a,1,0,101,1,1,0,0,0,0,,101,0,101,101,0,101,1,101,101,Tue Dec  5 10:22:00 2023,A template containing a practice and an experimental phase,yes,언어학과심리실험_B조_기말과제용심리실험.osexp,C:\Users\caphi\Downloads,no,mono,no,18,no,black,no,no,768,psycho,98,98,0,C:\Users\caphi\Downloads\quickrun.csv,psycho,Lentiform Loewenfeld,3.3.14,no,모자,artifactual,no-correlation,0,None,,x,,s,None,a,0.0232999445870518,,714.4634999567643,,576.4024000382051,0.0232999445870518,630.2137000020593,2,psycho,1024,2,48000,-16,experiment,999,odd,마우스,artifactual,,205442.8132999456,17501.452299999073,17501.336699933745,,16785.595200024545,11573.952300008386,17500.788199948147,,204694.2858999828,11606.920299935156,206190.79060002696,206191.42389995977,12183.994699968023,204908.712000004,,205559.20679995324,204681.51319993197,Extended template,0,2.527600736357272,99,yes,1024
0,0,0.0255030079279094,0.0255030079279094,white,yes,psycho,psycho,psycho,0,uniform,0,undefined,0,a,1,0,102,1,1,0,0,0,0,,102,0,102,102,0,102,1,102,102,Tue Dec  5 10:22:00 2023,A template containing a practice and an experimental phase,yes,언어학과심리실험_B조_기말과제용심리실험.osexp,C:\Users\caphi\Downloads,no,mono,no,18,no,black,no,no,768,psycho,99,99,0,C:\Users\caphi\Downloads\quickrun.csv,psycho,Lentiform Loewenfeld,3.3.14,no,마우스,artifactual,no-correlation,0,None,,x,,s,None,a,0.0227000564336776,,714.4634999567643,,576.4024000382051,0.0227000564336776,595.55170009844,2,psycho,1024,2,48000,-16,experiment,999,odd,모자,artifactual,,207058.90069995075,17501.452299999073,17501.336699933745,,16785.595200024545,11573.952300008386,17500.788199948147,,206311.929199961,11606.920299935156,207780.71069996804,207781.34859993588,12183.994699968023,206534.43110000808,,207183.88179992329,206300.41999998505,Extended template,0,2.5503007927909493,100,yes,1024
0,0,0.0255316920062102,0.0255316920062102,white,yes,psycho,psycho,psycho,0,uniform,0,undefined,0,n,1,0,103,1,1,0,0,0,0,,103,0,103,103,0,103,1,103,103,Tue Dec  5 10:22:00 2023,A template containing a practice and an experimental phase,yes,언어학과심리실험_B조_기말과제용심리실험.osexp,C:\Users\caphi\Downloads,no,mono,no,18,no,black,no,no,768,psycho,100,100,0,C:\Users\caphi\Downloads\quickrun.csv,psycho,Lentiform Loewenfeld,3.3.14,no,해마,natural,same phoneme,0,None,,x,,s,None,n,0.0284000998362898,,714.4634999567643,,576.4024000382051,0.0284000998362898,689.0011000214145,2,psycho,1024,2,48000,-16,experiment,999,odd,해질녘,natural,,208658.40720001145,17501.452299999073,17501.336699933745,,16785.595200024545,11573.952300008386,17500.788199948147,,207913.24639995585,11606.920299935156,209475.42079992127,209476.10849991904,12183.994699968023,208142.98939995933,,208785.0045999512,207891.76269993183,Extended template,0,2.5787008926272392,101,yes,1024
0,0,0.0256078520917571,0.0256078520917571,white,yes,psycho,psycho,psycho,0,uniform,0,undefined,0,a,1,0,104,1,1,0,0,0,0,,104,0,104,104,0,104,1,104,104,Tue Dec  5 10:22:00 2023,A template containing a practice and an experimental phase,yes,언어학과심리실험_B조_기말과제용심리실험.osexp,C:\Users\caphi\Downloads,no,mono,no,18,no,black,no,no,768,psycho,101,101,0,C:\Users\caphi\Downloads\quickrun.csv,psycho,Lentiform Loewenfeld,3.3.14,no,로봇,artifactual,same phoneme,0,None,,x,,s,None,a,0.0333000207319855,,714.4634999567643,,576.4024000382051,0.0333000207319855,642.3224000027403,2,psycho,1024,2,48000,-16,experiment,999,odd,로켓,artifactual,,210368.07810002935,17501.452299999073,17501.336699933745,,16785.595200024545,11573.952300008386,17500.788199948147,,209611.0375999706,11606.920299935156,211119.77639992256,211120.61220000032,12183.994699968023,209842.3311000224,,210475.8202999365,209583.67510000244,Extended template,0,2.612000913359225,102,yes,1024
0,0,0.0255776781733464,0.0255776781733464,white,yes,psycho,psycho,psycho,0,uniform,0,undefined,0,n,0,0,105,1,1,0,0,0,0,,105,0,105,105,0,105,1,105,105,Tue Dec  5 10:22:00 2023,A template containing a practice and an experimental phase,yes,언어학과심리실험_B조_기말과제용심리실험.osexp,C:\Users\caphi\Downloads,no,mono,no,18,no,black,no,no,768,psycho,102,102,0,C:\Users\caphi\Downloads\quickrun.csv,psycho,Lentiform Loewenfeld,3.3.14,no,보트,artifactual,same phoneme,0,None,,x,,s,None,a,0.0224999384954571,,714.4634999567643,,576.4024000382051,0.0224999384954571,632.4711999623105,2,psycho,1024,2,48000,-16,experiment,999,odd,보름달,natural,,212008.7384999497,17501.452299999073,17501.336699933745,,16785.595200024545,11573.952300008386,17500.788199948147,,211262.45889998967,11606.920299935156,212760.0169000216,212760.66399994303,12183.994699968023,211484.32809999213,,212126.2656999752,211230.63000000548,Extended template,0,2.634500851854682,103,yes,1024
