acc,accuracy,average_response_time,avg_rt,background,bidi,canvas_backend,clock_backend,color_backend,compensation,coordinates,correct,correct_instructions,correct_keyboard_response,correct_response,correct_target,count_about_this_template,count_blank,count_block_loop,count_block_sequence,count_end_of_experiment,count_end_of_practice,count_experiment,count_experimental_loop,count_feedback,count_fixation,count_instructions,count_keyboard_response,count_logger,count_practice_loop,count_prime,count_reset_feedback,count_target,count_trial_sequence,datetime,description,disable_garbage_collection,experiment_file,experiment_path,font_bold,font_family,font_italic,font_size,font_underline,foreground,form_clicks,fullscreen,height,keyboard_backend,live_row,live_row_block_loop,live_row_practice_loop,logfile,mouse_backend,opensesame_codename,opensesame_version,practice,prime,prime_condition,relation,repeat_cycle,response,response_end_of_experiment,response_end_of_practice,response_feedback,response_instructions,response_keyboard_response,response_target,response_time,response_time_end_of_experiment,response_time_end_of_practice,response_time_feedback,response_time_instructions,response_time_keyboard_response,response_time_target,round_decimals,sampler_backend,sound_buf_size,sound_channels,sound_freq,sound_sample_size,start,subject_nr,subject_parity,target,target_condition,time_about_this_template,time_blank,time_block_loop,time_block_sequence,time_end_of_experiment,time_end_of_practice,time_experiment,time_experimental_loop,time_feedback,time_fixation,time_instructions,time_keyboard_response,time_logger,time_practice_loop,time_prime,time_reset_feedback,time_target,time_trial_sequence,title,total_correct,total_response_time,total_responses,uniform_coordinates,width
0,0,0.0256999628618359,0.0256999628618359,white,yes,psycho,psycho,psycho,0,uniform,0,undefined,0,a,0,0,0,0,0,0,0,0,0,,0,0,0,0,0,0,0,0,0,Tue Dec  5 11:07:15 2023,A template containing a practice and an experimental phase,yes,언어학과심리실험_B조_기말과제용심리실험.osexp,C:\Users\caphi\Downloads,no,mono,no,18,no,black,no,no,768,psycho,0,0,0,C:\Users\caphi\Downloads\quickrun.csv,psycho,Lentiform Loewenfeld,3.3.14,yes,전기,natural,similar-environmental,0,None,,,,n,None,n,0.0256999628618359,,,,1116.9642000459137,0.0256999628618359,481.5615999978036,2,psycho,1024,2,48000,-16,experiment,999,odd,전선,artifactual,,7649.034900008701,6829.489000025205,6829.4038999592885,,,5697.0813999651,,,6914.808499976061,5711.467099958099,8238.754200050607,8238.885099999607,6828.887799987569,7122.488099965267,,7756.510199978948,6883.439099998213,Extended template,0,0.0256999628618359,1,yes,1024
0,0,0.0239499495364725,0.0239499495364725,white,yes,psycho,psycho,psycho,0,uniform,0,undefined,0,a,0,0,1,0,0,0,0,0,0,,1,0,1,1,0,1,0,1,1,Tue Dec  5 11:07:15 2023,A template containing a practice and an experimental phase,yes,언어학과심리실험_B조_기말과제용심리실험.osexp,C:\Users\caphi\Downloads,no,mono,no,18,no,black,no,no,768,psycho,1,1,0,C:\Users\caphi\Downloads\quickrun.csv,psycho,Lentiform Loewenfeld,3.3.14,yes,영화,artifactual,similar-environmental,0,None,,,,n,None,n,0.0221999362111091,,,,1116.9642000459137,0.0221999362111091,574.9661000445485,2,psycho,1024,2,48000,-16,experiment,999,odd,드라마,artifactual,,9130.662100040354,6829.489000025205,6829.4038999592885,,,5697.0813999651,,,8373.338300036266,5711.467099958099,9823.465100023896,9823.583399993367,6828.887799987569,8606.832499965094,,9247.800200013444,8356.675600050949,Extended template,0,0.0478998990729451,2,yes,1024
0,0,0.0233666117613514,0.0233666117613514,white,yes,psycho,psycho,psycho,0,uniform,0,undefined,0,n,0,0,2,0,0,0,0,0,0,,2,0,2,2,0,2,0,2,2,Tue Dec  5 11:07:15 2023,A template containing a practice and an experimental phase,yes,언어학과심리실험_B조_기말과제용심리실험.osexp,C:\Users\caphi\Downloads,no,mono,no,18,no,black,no,no,768,psycho,2,2,0,C:\Users\caphi\Downloads\quickrun.csv,psycho,Lentiform Loewenfeld,3.3.14,yes,물고기,natural,no-correlation,0,None,,,,n,None,x,0.0221999362111091,,,,1116.9642000459137,0.0221999362111091,325.177300022915,2,psycho,1024,2,48000,-16,experiment,999,odd,밤하늘,natural,,10715.01210005954,6829.489000025205,6829.4038999592885,,,5697.0813999651,,,9976.303900009952,5711.467099958099,11165.031700045802,11165.168600040488,6828.887799987569,10189.257199992426,,10839.224600000309,9934.306800016202,Extended template,0,0.0700998352840542,3,yes,1024
0,0,0.0258000800386071,0.0258000800386071,white,yes,psycho,psycho,psycho,0,uniform,0,undefined,0,n,1,0,3,1,1,0,0,0,0,,3,0,3,3,0,3,1,3,3,Tue Dec  5 11:07:15 2023,A template containing a practice and an experimental phase,yes,언어학과심리실험_B조_기말과제용심리실험.osexp,C:\Users\caphi\Downloads,no,mono,no,18,no,black,no,no,768,psycho,0,0,0,C:\Users\caphi\Downloads\quickrun.csv,psycho,Lentiform Loewenfeld,3.3.14,no,우산,artifactual,similar-environmental,0,None,,n,,n,None,n,0.0258000800386071,,542.2642000485212,,1116.9642000459137,0.0258000800386071,899.3116000201553,2,psycho,1024,2,48000,-16,experiment,999,odd,비,natural,,12698.52620002348,11894.80360003654,11894.686099956743,,11350.94549995847,5697.0813999651,11894.025000045076,,11965.811799978836,5711.467099958099,13714.541299967095,13714.691500063054,6828.887799987569,12172.440399997868,,12814.426800003275,11935.00870000571,Extended template,0,0.0258000800386071,1,yes,1024
0,0,0.024000066332519,0.024000066332519,white,yes,psycho,psycho,psycho,0,uniform,0,undefined,0,a,1,0,4,1,1,0,0,0,0,,4,0,4,4,0,4,1,4,4,Tue Dec  5 11:07:15 2023,A template containing a practice and an experimental phase,yes,언어학과심리실험_B조_기말과제용심리실험.osexp,C:\Users\caphi\Downloads,no,mono,no,18,no,black,no,no,768,psycho,1,1,0,C:\Users\caphi\Downloads\quickrun.csv,psycho,Lentiform Loewenfeld,3.3.14,no,기계,artifactual,inclusive,0,None,,n,,n,None,a,0.0222000526264309,,542.2642000485212,,1116.9642000459137,0.0222000526264309,642.8128000115976,2,psycho,1024,2,48000,-16,experiment,999,odd,컴퓨터,artifactual,,14589.674400049262,11894.80360003654,11894.686099956743,,11350.94549995847,5697.0813999651,11894.025000045076,,13842.674999963492,5711.467099958099,15358.928799978456,15359.057800029404,6828.887799987569,14056.78290000651,,14715.375200030394,13824.49839997571,Extended template,0,0.0480001326650381,2,yes,1024
0,0,0.0238000648096203,0.0238000648096203,white,yes,psycho,psycho,psycho,0,uniform,0,undefined,0,n,0,0,5,1,1,0,0,0,0,,5,0,5,5,0,5,1,5,5,Tue Dec  5 11:07:15 2023,A template containing a practice and an experimental phase,yes,언어학과심리실험_B조_기말과제용심리실험.osexp,C:\Users\caphi\Downloads,no,mono,no,18,no,black,no,no,768,psycho,2,2,0,C:\Users\caphi\Downloads\quickrun.csv,psycho,Lentiform Loewenfeld,3.3.14,no,달,artifactual,same phoneme,0,None,,n,,n,None,a,0.023400061763823,,542.2642000485212,,1116.9642000459137,0.023400061763823,781.852800049819,2,psycho,1024,2,48000,-16,experiment,999,odd,달력,natural,,16239.689499954691,11894.80360003654,11894.686099956743,,11350.94549995847,5697.0813999651,11894.025000045076,,15491.830799961464,5711.467099958099,17138.969599967822,17139.104600064456,6828.887799987569,15714.846199960448,,16356.376799987627,15472.469000029378,Extended template,0,0.0714001944288611,3,yes,1024
0,0,0.023850065190345,0.023850065190345,white,yes,psycho,psycho,psycho,0,uniform,0,undefined,0,n,1,0,6,1,1,0,0,0,0,,6,0,6,6,0,6,1,6,6,Tue Dec  5 11:07:15 2023,A template containing a practice and an experimental phase,yes,언어학과심리실험_B조_기말과제용심리실험.osexp,C:\Users\caphi\Downloads,no,mono,no,18,no,black,no,no,768,psycho,3,3,0,C:\Users\caphi\Downloads\quickrun.csv,psycho,Lentiform Loewenfeld,3.3.14,no,바다,natural,same phoneme,0,None,,n,,n,None,n,0.024000066332519,,542.2642000485212,,1116.9642000459137,0.024000066332519,627.7991000097245,2,psycho,1024,2,48000,-16,experiment,999,odd,바퀴벌레,natural,,17999.14740002714,11894.80360003654,11894.686099956743,,11350.94549995847,5697.0813999651,11894.025000045076,,17259.798099985346,5711.467099958099,18735.501599963754,18735.64329999499,6828.887799987569,17473.648600047454,,18107.01729997527,17249.761900049634,Extended template,0,0.0954002607613802,4,yes,1024
0,0,0.0243800459429621,0.0243800459429621,white,yes,psycho,psycho,psycho,0,uniform,0,undefined,0,n,1,0,7,1,1,0,0,0,0,,7,0,7,7,0,7,1,7,7,Tue Dec  5 11:07:15 2023,A template containing a practice and an experimental phase,yes,언어학과심리실험_B조_기말과제용심리실험.osexp,C:\Users\caphi\Downloads,no,mono,no,18,no,black,no,no,768,psycho,4,4,0,C:\Users\caphi\Downloads\quickrun.csv,psycho,Lentiform Loewenfeld,3.3.14,no,산,natural,similar-environmental,0,None,,n,,n,None,n,0.0264999689534306,,542.2642000485212,,1116.9642000459137,0.0264999689534306,697.0353999640793,2,psycho,1024,2,48000,-16,experiment,999,odd,계곡,natural,,19607.186199980788,11894.80360003654,11894.686099956743,,11350.94549995847,5697.0813999651,11894.025000045076,,18868.68069996126,5711.467099958099,20429.33539999649,20429.50980004389,6828.887799987569,19089.53840006143,,19731.294800061733,18844.446400064044,Extended template,0,0.1219002297148108,5,yes,1024
0,0,0.0252167034583787,0.0252167034583787,white,yes,psycho,psycho,psycho,0,uniform,0,undefined,0,n,1,0,8,1,1,0,0,0,0,,8,0,8,8,0,8,1,8,8,Tue Dec  5 11:07:15 2023,A template containing a practice and an experimental phase,yes,언어학과심리실험_B조_기말과제용심리실험.osexp,C:\Users\caphi\Downloads,no,mono,no,18,no,black,no,no,768,psycho,5,5,0,C:\Users\caphi\Downloads\quickrun.csv,psycho,Lentiform Loewenfeld,3.3.14,no,경주,artifactual,no-correlation,0,None,,n,,n,None,n,0.0293999910354614,,542.2642000485212,,1116.9642000459137,0.0293999910354614,724.5986999478191,2,psycho,1024,2,48000,-16,experiment,999,odd,소나무,natural,,21331.630500033498,11894.80360003654,11894.686099956743,,11350.94549995847,5697.0813999651,11894.025000045076,,20568.07380006649,5711.467099958099,22164.771300042048,22164.954900043085,6828.887799987569,20806.78009998519,,21439.304600004107,20534.661500016227,Extended template,0,0.1513002207502722,6,yes,1024
0,0,0.0248571658240897,0.0248571658240897,white,yes,psycho,psycho,psycho,0,uniform,0,undefined,0,a,1,0,9,1,1,0,0,0,0,,9,0,9,9,0,9,1,9,9,Tue Dec  5 11:07:15 2023,A template containing a practice and an experimental phase,yes,언어학과심리실험_B조_기말과제용심리실험.osexp,C:\Users\caphi\Downloads,no,mono,no,18,no,black,no,no,768,psycho,6,6,0,C:\Users\caphi\Downloads\quickrun.csv,psycho,Lentiform Loewenfeld,3.3.14,no,기차,artifactual,no-correlation,0,None,,n,,n,None,a,0.0226999400183558,,542.2642000485212,,1116.9642000459137,0.0226999400183558,696.0038000252098,2,psycho,1024,2,48000,-16,experiment,999,odd,가방,artifactual,,23056.029899977148,11894.80360003654,11894.686099956743,,11350.94549995847,5697.0813999651,11894.025000045076,,22309.646200039424,5711.467099958099,23869.86820003949,23870.024600066245,6828.887799987569,22523.878399981186,,23173.158399993557,22274.22809996642,Extended template,0,0.1740001607686281,7,yes,1024
0,0,0.0245625269599258,0.0245625269599258,white,yes,psycho,psycho,psycho,0,uniform,0,undefined,0,a,1,0,10,1,1,0,0,0,0,,10,0,10,10,0,10,1,10,10,Tue Dec  5 11:07:15 2023,A template containing a practice and an experimental phase,yes,언어학과심리실험_B조_기말과제용심리실험.osexp,C:\Users\caphi\Downloads,no,mono,no,18,no,black,no,no,768,psycho,7,7,0,C:\Users\caphi\Downloads\quickrun.csv,psycho,Lentiform Loewenfeld,3.3.14,no,해변,natural,similar-environmental,0,None,,n,,n,None,a,0.022500054910779,,542.2642000485212,,1116.9642000459137,0.022500054910779,1013.72100005392,2,psycho,1024,2,48000,-16,experiment,999,odd,파라솔,artifactual,,24739.78309996892,11894.80360003654,11894.686099956743,,11350.94549995847,5697.0813999651,11894.025000045076,,24009.800800005905,5711.467099958099,25879.825899959545,25879.997799987905,6828.887799987569,24223.41099998448,,24865.224699955437,23985.33229995519,Extended template,0,0.1965002156794071,8,yes,1024
0,0,0.0253889140569501,0.0253889140569501,white,yes,psycho,psycho,psycho,0,uniform,0,undefined,0,n,1,0,11,1,1,0,0,0,0,,11,0,11,11,0,11,1,11,11,Tue Dec  5 11:07:15 2023,A template containing a practice and an experimental phase,yes,언어학과심리실험_B조_기말과제용심리실험.osexp,C:\Users\caphi\Downloads,no,mono,no,18,no,black,no,no,768,psycho,8,8,0,C:\Users\caphi\Downloads\quickrun.csv,psycho,Lentiform Loewenfeld,3.3.14,no,박쥐,natural,similar-environmental,0,None,,n,,n,None,n,0.0320000108331441,,542.2642000485212,,1116.9642000459137,0.0320000108331441,761.4327999763191,2,psycho,1024,2,48000,-16,experiment,999,odd,동굴,natural,,26773.04820006248,11894.80360003654,11894.686099956743,,11350.94549995847,5697.0813999651,11894.025000045076,,26026.15629998036,5711.467099958099,27660.4137000395,27660.58809997048,6828.887799987569,26240.36699999124,,26898.314199992456,25992.349899956025,Extended template,0,0.2285002265125513,9,yes,1024
0,0,0.0251100165769457,0.0251100165769457,white,yes,psycho,psycho,psycho,0,uniform,0,undefined,0,a,1,0,12,1,1,0,0,0,0,,12,0,12,12,0,12,1,12,12,Tue Dec  5 11:07:15 2023,A template containing a practice and an experimental phase,yes,언어학과심리실험_B조_기말과제용심리실험.osexp,C:\Users\caphi\Downloads,no,mono,no,18,no,black,no,no,768,psycho,9,9,0,C:\Users\caphi\Downloads\quickrun.csv,psycho,Lentiform Loewenfeld,3.3.14,no,안음풍,non-word,non-word,0,None,,n,,n,None,a,0.0225999392569065,,542.2642000485212,,1116.9642000459137,0.0225999392569065,715.6807000283152,2,psycho,1024,2,48000,-16,experiment,999,odd,의자,artifactual,,28539.530499954708,11894.80360003654,11894.686099956743,,11350.94549995847,5697.0813999651,11894.025000045076,,27792.717100004666,5711.467099958099,29373.232800047845,29373.40200005565,6828.887799987569,28015.157300047576,,28656.78970003501,27775.05850000307,Extended template,0,0.2511001657694578,10,yes,1024
0,0,0.0252545578405261,0.0252545578405261,white,yes,psycho,psycho,psycho,0,uniform,0,undefined,0,n,1,0,13,1,1,0,0,0,0,,13,0,13,13,0,13,1,13,13,Tue Dec  5 11:07:15 2023,A template containing a practice and an experimental phase,yes,언어학과심리실험_B조_기말과제용심리실험.osexp,C:\Users\caphi\Downloads,no,mono,no,18,no,black,no,no,768,psycho,10,10,0,C:\Users\caphi\Downloads\quickrun.csv,psycho,Lentiform Loewenfeld,3.3.14,no,바닥,artifactual,same phoneme,0,None,,n,,n,None,n,0.0266999704763293,,542.2642000485212,,1116.9642000459137,0.0266999704763293,1179.1456000646576,2,psycho,1024,2,48000,-16,experiment,999,odd,바다,natural,,30265.659300028343,11894.80360003654,11894.686099956743,,11350.94549995847,5697.0813999651,11894.025000045076,,29526.58010006417,5711.467099958099,31570.28350001201,31570.473000057973,6828.887799987569,29740.21930003073,,30390.22349996958,29507.374300039373,Extended template,0,0.2778001362457871,11,yes,1024
0,0,0.0251666739738235,0.0251666739738235,white,yes,psycho,psycho,psycho,0,uniform,0,undefined,0,n,1,0,14,1,1,0,0,0,0,,14,0,14,14,0,14,1,14,14,Tue Dec  5 11:07:15 2023,A template containing a practice and an experimental phase,yes,언어학과심리실험_B조_기말과제용심리실험.osexp,C:\Users\caphi\Downloads,no,mono,no,18,no,black,no,no,768,psycho,11,11,0,C:\Users\caphi\Downloads\quickrun.csv,psycho,Lentiform Loewenfeld,3.3.14,no,불,natural,no-correlation,0,None,,n,,n,None,n,0.0241999514400959,,542.2642000485212,,1116.9642000459137,0.0241999514400959,699.2035999428481,2,psycho,1024,2,48000,-16,experiment,999,odd,바위,natural,,32464.77199997753,11894.80360003654,11894.686099956743,,11350.94549995847,5697.0813999651,11894.025000045076,,31709.45750002284,5711.467099958099,33289.38490001019,33289.58810004406,6828.887799987569,31940.45920006465,,32589.30600003805,31685.8351000119,Extended template,0,0.302000087685883,12,yes,1024
0,0,0.025084618335733,0.025084618335733,white,yes,psycho,psycho,psycho,0,uniform,0,undefined,0,n,1,0,15,1,1,0,0,0,0,,15,0,15,15,0,15,1,15,15,Tue Dec  5 11:07:15 2023,A template containing a practice and an experimental phase,yes,언어학과심리실험_B조_기말과제용심리실험.osexp,C:\Users\caphi\Downloads,no,mono,no,18,no,black,no,no,768,psycho,12,12,0,C:\Users\caphi\Downloads\quickrun.csv,psycho,Lentiform Loewenfeld,3.3.14,no,보트,artifactual,same phoneme,0,None,,n,,n,None,n,0.0240999506786465,,542.2642000485212,,1116.9642000459137,0.0240999506786465,687.8498999867588,2,psycho,1024,2,48000,-16,experiment,999,odd,보름달,natural,,34156.49670001585,11894.80360003654,11894.686099956743,,11350.94549995847,5697.0813999651,11894.025000045076,,33427.16279998422,5711.467099958099,34970.0584000675,34970.25370004121,6828.887799987569,33640.54990001023,,34281.44569997676,33410.276300041005,Extended template,0,0.3261000383645296,13,yes,1024
0,0,0.0249285699932702,0.0249285699932702,white,yes,psycho,psycho,psycho,0,uniform,0,undefined,0,a,1,0,16,1,1,0,0,0,0,,16,0,16,16,0,16,1,16,16,Tue Dec  5 11:07:15 2023,A template containing a practice and an experimental phase,yes,언어학과심리실험_B조_기말과제용심리실험.osexp,C:\Users\caphi\Downloads,no,mono,no,18,no,black,no,no,768,psycho,13,13,0,C:\Users\caphi\Downloads\quickrun.csv,psycho,Lentiform Loewenfeld,3.3.14,no,경주,artifactual,no-correlation,0,None,,n,,n,None,a,0.0228999415412545,,542.2642000485212,,1116.9642000459137,0.0228999415412545,716.4877000031993,2,psycho,1024,2,48000,-16,experiment,999,odd,버스,artifactual,,35848.62149995752,11894.80360003654,11894.686099956743,,11350.94549995847,5697.0813999651,11894.025000045076,,35092.792900046334,5711.467099958099,36674.73880003672,36674.93360000663,6828.887799987569,35323.13260005321,,35957.420099992305,35078.43300001696,Extended template,0,0.3489999799057841,14,yes,1024
0,0,0.025279998468856,0.025279998468856,white,yes,psycho,psycho,psycho,0,uniform,0,undefined,0,n,1,0,17,1,1,0,0,0,0,,17,0,17,17,0,17,1,17,17,Tue Dec  5 11:07:15 2023,A template containing a practice and an experimental phase,yes,언어학과심리실험_B조_기말과제용심리실험.osexp,C:\Users\caphi\Downloads,no,mono,no,18,no,black,no,no,768,psycho,14,14,0,C:\Users\caphi\Downloads\quickrun.csv,psycho,Lentiform Loewenfeld,3.3.14,no,전등,artifactual,no-correlation,0,None,,n,,n,None,n,0.0301999971270561,,542.2642000485212,,1116.9642000459137,0.0301999971270561,614.5756000187248,2,psycho,1024,2,48000,-16,experiment,999,odd,소,natural,,37581.8508999655,11894.80360003654,11894.686099956743,,11350.94549995847,5697.0813999651,11894.025000045076,,36826.69719995465,5711.467099958099,38305.40019995533,38305.60369999148,6828.887799987569,37056.12129997462,,37689.563899999484,36787.90979995392,Extended template,0,0.3791999770328402,15,yes,1024
0,0,0.0252187528531067,0.0252187528531067,white,yes,psycho,psycho,psycho,0,uniform,0,undefined,0,a,1,0,18,1,1,0,0,0,0,,18,0,18,18,0,18,1,18,18,Tue Dec  5 11:07:15 2023,A template containing a practice and an experimental phase,yes,언어학과심리실험_B조_기말과제용심리실험.osexp,C:\Users\caphi\Downloads,no,mono,no,18,no,black,no,no,768,psycho,15,15,0,C:\Users\caphi\Downloads\quickrun.csv,psycho,Lentiform Loewenfeld,3.3.14,no,향수,artifactual,no-correlation,0,None,,n,,n,None,a,0.024300068616867,,542.2642000485212,,1116.9642000459137,0.024300068616867,746.5515000512823,2,psycho,1024,2,48000,-16,experiment,999,odd,선풍기,artifactual,,39216.0215000622,11894.80360003654,11894.686099956743,,11350.94549995847,5697.0813999651,11894.025000045076,,38459.97610001359,5711.467099958099,40070.2164999675,40070.41939999908,6828.887799987569,38690.83229999524,,39322.88240001071,38426.807899959385,Extended template,0,0.4035000456497073,16,yes,1024
0,0,0.0250294106081128,0.0250294106081128,white,yes,psycho,psycho,psycho,0,uniform,0,undefined,0,a,1,0,19,1,1,0,0,0,0,,19,0,19,19,0,19,1,19,19,Tue Dec  5 11:07:15 2023,A template containing a practice and an experimental phase,yes,언어학과심리실험_B조_기말과제용심리실험.osexp,C:\Users\caphi\Downloads,no,mono,no,18,no,black,no,no,768,psycho,16,16,0,C:\Users\caphi\Downloads\quickrun.csv,psycho,Lentiform Loewenfeld,3.3.14,no,학적,artifactual,same phoneme,0,None,,n,,n,None,a,0.0219999346882104,,542.2642000485212,,1116.9642000459137,0.0219999346882104,751.1984999291599,2,psycho,1024,2,48000,-16,experiment,999,odd,학술,artifactual,,40948.11380002648,11894.80360003654,11894.686099956743,,11350.94549995847,5697.0813999651,11894.025000045076,,40210.1413999917,5711.467099958099,41809.158400050364,41809.36339998152,6828.887799987569,40424.29550003726,,41057.155600050464,40184.25439996645,Extended template,0,0.4254999803379178,17,yes,1024
0,0,0.0260055530816316,0.0260055530816316,white,yes,psycho,psycho,psycho,0,uniform,0,undefined,0,n,1,0,20,1,1,0,0,0,0,,20,0,20,20,0,20,1,20,20,Tue Dec  5 11:07:15 2023,A template containing a practice and an experimental phase,yes,언어학과심리실험_B조_기말과제용심리실험.osexp,C:\Users\caphi\Downloads,no,mono,no,18,no,black,no,no,768,psycho,17,17,0,C:\Users\caphi\Downloads\quickrun.csv,psycho,Lentiform Loewenfeld,3.3.14,no,등산로,artifactual,similar-environmental,0,None,,n,,n,None,n,0.042599975131452,,542.2642000485212,,1116.9642000459137,0.042599975131452,703.9361000061035,2,psycho,1024,2,48000,-16,experiment,999,odd,산,natural,,42675.01110001467,11894.80360003654,11894.686099956743,,11350.94549995847,5697.0813999651,11894.025000045076,,41943.42050002888,5711.467099958099,43503.06190003175,43503.348500002176,6828.887799987569,42165.58190004434,,42798.10090002138,41920.40589998942,Extended template,0,0.4680999554693699,18,yes,1024
0,0,0.0267842122794766,0.0267842122794766,white,yes,psycho,psycho,psycho,0,uniform,0,undefined,0,n,1,0,21,1,1,0,0,0,0,,21,0,21,21,0,21,1,21,21,Tue Dec  5 11:07:15 2023,A template containing a practice and an experimental phase,yes,언어학과심리실험_B조_기말과제용심리실험.osexp,C:\Users\caphi\Downloads,no,mono,no,18,no,black,no,no,768,psycho,18,18,0,C:\Users\caphi\Downloads\quickrun.csv,psycho,Lentiform Loewenfeld,3.3.14,no,꽃,natural,inclusive,0,None,,n,,n,None,n,0.0408000778406858,,542.2642000485212,,1116.9642000459137,0.0408000778406858,672.9163000127301,2,psycho,1024,2,48000,-16,experiment,999,odd,해바라기,natural,,44398.47170002759,11894.80360003654,11894.686099956743,,11350.94549995847,5697.0813999651,11894.025000045076,,43659.90169998258,5711.467099958099,45180.50689995289,45180.944800027646,6828.887799987569,43881.9432000164,,44506.28179998603,43634.118500049226,Extended template,0,0.5089000333100557,19,yes,1024
0,0,0.0265650043729692,0.0265650043729692,white,yes,psycho,psycho,psycho,0,uniform,0,undefined,0,a,1,0,22,1,1,0,0,0,0,,22,0,22,22,0,22,1,22,22,Tue Dec  5 11:07:15 2023,A template containing a practice and an experimental phase,yes,언어학과심리실험_B조_기말과제용심리실험.osexp,C:\Users\caphi\Downloads,no,mono,no,18,no,black,no,no,768,psycho,19,19,0,C:\Users\caphi\Downloads\quickrun.csv,psycho,Lentiform Loewenfeld,3.3.14,no,교통,artifactual,inclusive,0,None,,n,,n,None,a,0.0224000541493296,,542.2642000485212,,1116.9642000459137,0.0224000541493296,583.0365000292659,2,psycho,1024,2,48000,-16,experiment,999,odd,자동차,artifactual,,46056.89300002996,11894.80360003654,11894.686099956743,,11350.94549995847,5697.0813999651,11894.025000045076,,45309.42810000852,5711.467099958099,46765.13249997515,46765.35300002433,6828.887799987569,45531.4852000447,,46181.25699996017,45287.7931999974,Extended template,0,0.5313000874593854,20,yes,1024
0,0,0.0263904831150458,0.0263904831150458,white,yes,psycho,psycho,psycho,0,uniform,0,undefined,0,a,1,0,23,1,1,0,0,0,0,,23,0,23,23,0,23,1,23,23,Tue Dec  5 11:07:15 2023,A template containing a practice and an experimental phase,yes,언어학과심리실험_B조_기말과제용심리실험.osexp,C:\Users\caphi\Downloads,no,mono,no,18,no,black,no,no,768,psycho,20,20,0,C:\Users\caphi\Downloads\quickrun.csv,psycho,Lentiform Loewenfeld,3.3.14,no,바람,natural,no-correlation,0,None,,n,,n,None,a,0.0229000579565763,,542.2642000485212,,1116.9642000459137,0.0229000579565763,716.0211999434978,2,psycho,1024,2,48000,-16,experiment,999,odd,버스,artifactual,,47640.97990002483,11894.80360003654,11894.686099956743,,11350.94549995847,5697.0813999651,11894.025000045076,,46892.79449998867,5711.467099958099,48489.88809995353,48490.11700006668,6828.887799987569,47116.11359997187,,47773.061600048095,46875.37609995343,Extended template,0,0.5542001454159617,21,yes,1024
0,0,0.0263863740573552,0.0263863740573552,white,yes,psycho,psycho,psycho,0,uniform,0,undefined,0,a,1,0,24,1,1,0,0,0,0,,24,0,24,24,0,24,1,24,24,Tue Dec  5 11:07:15 2023,A template containing a practice and an experimental phase,yes,언어학과심리실험_B조_기말과제용심리실험.osexp,C:\Users\caphi\Downloads,no,mono,no,18,no,black,no,no,768,psycho,21,21,0,C:\Users\caphi\Downloads\quickrun.csv,psycho,Lentiform Loewenfeld,3.3.14,no,종이,artifactual,similar-environmental,0,None,,n,,n,None,a,0.0263000838458538,,542.2642000485212,,1116.9642000459137,0.0263000838458538,732.6460999902338,2,psycho,1024,2,48000,-16,experiment,999,odd,프린터,artifactual,,49389.5988999866,11894.80360003654,11894.686099956743,,11350.94549995847,5697.0813999651,11894.025000045076,,48643.55310006067,5711.467099958099,50248.25449998025,50248.55470005423,6828.887799987569,48866.13260000013,,49514.69680003356,48607.403700007126,Extended template,0,0.5805002292618155,22,yes,1024
0,0,0.0262391429556452,0.0262391429556452,white,yes,psycho,psycho,psycho,0,uniform,0,undefined,0,a,0,0,25,1,1,0,0,0,0,,25,0,25,25,0,25,1,25,25,Tue Dec  5 11:07:15 2023,A template containing a practice and an experimental phase,yes,언어학과심리실험_B조_기말과제용심리실험.osexp,C:\Users\caphi\Downloads,no,mono,no,18,no,black,no,no,768,psycho,22,22,0,C:\Users\caphi\Downloads\quickrun.csv,psycho,Lentiform Loewenfeld,3.3.14,no,호수,natural,no-correlation,0,None,,n,,n,None,n,0.0230000587180256,,542.2642000485212,,1116.9642000459137,0.0230000587180256,543.4786999830976,2,psycho,1024,2,48000,-16,experiment,999,odd,화장실,artifactual,,51140.41580003686,11894.80360003654,11894.686099956743,,11350.94549995847,5697.0813999651,11894.025000045076,,50393.101800000295,5711.467099958099,51809.53339999542,51809.78100001812,6828.887799987569,50615.47449999489,,51265.24530001916,50356.54880001675,Extended template,0,0.6035002879798412,23,yes,1024
0,0,0.0261000095633789,0.0261000095633789,white,yes,psycho,psycho,psycho,0,uniform,0,undefined,0,n,0,0,26,1,1,0,0,0,0,,26,0,26,26,0,26,1,26,26,Tue Dec  5 11:07:15 2023,A template containing a practice and an experimental phase,yes,언어학과심리실험_B조_기말과제용심리실험.osexp,C:\Users\caphi\Downloads,no,mono,no,18,no,black,no,no,768,psycho,23,23,0,C:\Users\caphi\Downloads\quickrun.csv,psycho,Lentiform Loewenfeld,3.3.14,no,전구,artifactual,similar-environmental,0,None,,n,,n,None,a,0.0228999415412545,,542.2642000485212,,1116.9642000459137,0.0228999415412545,598.1548000127077,2,psycho,1024,2,48000,-16,experiment,999,odd,빛,natural,,52657.60380006395,11894.80360003654,11894.686099956743,,11350.94549995847,5697.0813999651,11894.025000045076,,51926.63660005201,5711.467099958099,53389.76020005066,53390.00989997294,6828.887799987569,52141.01420005318,,52790.77009996399,51916.13959998358,Extended template,0,0.6264002295210958,24,yes,1024
0,0,0.025948011316359,0.025948011316359,white,yes,psycho,psycho,psycho,0,uniform,0,undefined,0,n,1,0,27,1,1,0,0,0,0,,27,0,27,27,0,27,1,27,27,Tue Dec  5 11:07:15 2023,A template containing a practice and an experimental phase,yes,언어학과심리실험_B조_기말과제용심리실험.osexp,C:\Users\caphi\Downloads,no,mono,no,18,no,black,no,no,768,psycho,24,24,0,C:\Users\caphi\Downloads\quickrun.csv,psycho,Lentiform Loewenfeld,3.3.14,no,대학교,artifactual,no-correlation,0,None,,n,,n,None,n,0.0223000533878803,,542.2642000485212,,1116.9642000459137,0.0223000533878803,665.2253000065684,2,psycho,1024,2,48000,-16,experiment,999,odd,계곡,natural,,54281.73629997764,11894.80360003654,11894.686099956743,,11350.94549995847,5697.0813999651,11894.025000045076,,53536.99870000128,5711.467099958099,55065.26199996006,55065.50749996677,6828.887799987569,53756.88830006402,,54399.135099956766,53500.699599972,Extended template,0,0.6487002829089761,25,yes,1024
0,0,0.0258038590590541,0.0258038590590541,white,yes,psycho,psycho,psycho,0,uniform,0,undefined,0,a,1,0,28,1,1,0,0,0,0,,28,0,28,28,0,28,1,28,28,Tue Dec  5 11:07:15 2023,A template containing a practice and an experimental phase,yes,언어학과심리실험_B조_기말과제용심리실험.osexp,C:\Users\caphi\Downloads,no,mono,no,18,no,black,no,no,768,psycho,25,25,0,C:\Users\caphi\Downloads\quickrun.csv,psycho,Lentiform Loewenfeld,3.3.14,no,시,artifactual,similar-environmental,0,None,,n,,n,None,a,0.0222000526264309,,542.2642000485212,,1116.9642000459137,0.0222000526264309,750.7430999539793,2,psycho,1024,2,48000,-16,experiment,999,odd,소설,artifactual,,55957.487100036815,11894.80360003654,11894.686099956743,,11350.94549995847,5697.0813999651,11894.025000045076,,55210.78329999,5711.467099958099,56824.47200000752,56824.73600003868,6828.887799987569,55441.10219995491,,56072.93430005666,55182.958299992606,Extended template,0,0.6709003355354071,26,yes,1024
0,0,0.0256370468479063,0.0256370468479063,white,yes,psycho,psycho,psycho,0,uniform,0,undefined,0,a,1,0,29,1,1,0,0,0,0,,29,0,29,29,0,29,1,29,29,Tue Dec  5 11:07:15 2023,A template containing a practice and an experimental phase,yes,언어학과심리실험_B조_기말과제용심리실험.osexp,C:\Users\caphi\Downloads,no,mono,no,18,no,black,no,no,768,psycho,26,26,0,C:\Users\caphi\Downloads\quickrun.csv,psycho,Lentiform Loewenfeld,3.3.14,no,카메라,artifactual,inclusive,0,None,,n,,n,None,a,0.0212999293580651,,542.2642000485212,,1116.9642000459137,0.0212999293580651,635.3270000545308,2,psycho,1024,2,48000,-16,experiment,999,odd,렌즈,artifactual,,57740.077599999495,11894.80360003654,11894.686099956743,,11350.94549995847,5697.0813999651,11894.025000045076,,56976.78619995713,5711.467099958099,58510.18560002558,58510.43839997146,6828.887799987569,57207.71109999623,,57874.016399960965,56959.96819995344,Extended template,0,0.6922002648934722,27,yes,1024
0,0,0.0256250121830297,0.0256250121830297,white,yes,psycho,psycho,psycho,0,uniform,0,undefined,0,a,0,0,30,1,1,0,0,0,0,,30,0,30,30,0,30,1,30,30,Tue Dec  5 11:07:15 2023,A template containing a practice and an experimental phase,yes,언어학과심리실험_B조_기말과제용심리실험.osexp,C:\Users\caphi\Downloads,no,mono,no,18,no,black,no,no,768,psycho,27,27,0,C:\Users\caphi\Downloads\quickrun.csv,psycho,Lentiform Loewenfeld,3.3.14,no,산,natural,similar-environmental,0,None,,n,,n,None,n,0.0253000762313604,,542.2642000485212,,1116.9642000459137,0.0253000762313604,615.2647000271827,2,psycho,1024,2,48000,-16,experiment,999,odd,오두막,artifactual,,59390.67410002463,11894.80360003654,11894.686099956743,,11350.94549995847,5697.0813999651,11894.025000045076,,58653.489600052126,5711.467099958099,60131.35849998798,60131.65930006653,6828.887799987569,58874.11590002012,,59515.07730002049,58620.32220000401,Extended template,0,0.7175003411248326,28,yes,1024
0,0,0.0255379408341029,0.0255379408341029,white,yes,psycho,psycho,psycho,0,uniform,0,undefined,0,n,1,0,31,1,1,0,0,0,0,,31,0,31,31,0,31,1,31,31,Tue Dec  5 11:07:15 2023,A template containing a practice and an experimental phase,yes,언어학과심리실험_B조_기말과제용심리실험.osexp,C:\Users\caphi\Downloads,no,mono,no,18,no,black,no,no,768,psycho,28,28,0,C:\Users\caphi\Downloads\quickrun.csv,psycho,Lentiform Loewenfeld,3.3.14,no,풍차,artifactual,no-correlation,0,None,,n,,n,None,n,0.0230999430641531,,542.2642000485212,,1116.9642000459137,0.0230999430641531,726.1812000069767,2,psycho,1024,2,48000,-16,experiment,999,odd,흙,natural,,61007.078299997374,11894.80360003654,11894.686099956743,,11350.94549995847,5697.0813999651,11894.025000045076,,60271.09509997536,5711.467099958099,61851.24360001646,61851.52290004771,6828.887799987569,60499.13350003772,,61124.09709999338,60233.56419999618,Extended template,0,0.7406002841889858,29,yes,1024
0,0,0.0255133413399259,0.0255133413399259,white,yes,psycho,psycho,psycho,0,uniform,0,undefined,0,n,1,0,32,1,1,0,0,0,0,,32,0,32,32,0,32,1,32,32,Tue Dec  5 11:07:15 2023,A template containing a practice and an experimental phase,yes,언어학과심리실험_B조_기말과제용심리실험.osexp,C:\Users\caphi\Downloads,no,mono,no,18,no,black,no,no,768,psycho,29,29,0,C:\Users\caphi\Downloads\quickrun.csv,psycho,Lentiform Loewenfeld,3.3.14,no,달력,artifactual,same phoneme,0,None,,n,,n,None,n,0.0247999560087919,,542.2642000485212,,1116.9642000459137,0.0247999560087919,1171.8558999709785,2,psycho,1024,2,48000,-16,experiment,999,odd,달,natural,,62748.866499983706,11894.80360003654,11894.686099956743,,11350.94549995847,5697.0813999651,11894.025000045076,,61994.76330005564,5711.467099958099,64045.93210003805,64046.27789999358,6828.887799987569,62224.49210006744,,62873.03060002159,61964.31950002443,Extended template,0,0.7654002401977777,30,yes,1024
0,0,0.0253806544107294,0.0253806544107294,white,yes,psycho,psycho,psycho,0,uniform,0,undefined,0,a,1,0,33,1,1,0,0,0,0,,33,0,33,33,0,33,1,33,33,Tue Dec  5 11:07:15 2023,A template containing a practice and an experimental phase,yes,언어학과심리실험_B조_기말과제용심리실험.osexp,C:\Users\caphi\Downloads,no,mono,no,18,no,black,no,no,768,psycho,30,30,0,C:\Users\caphi\Downloads\quickrun.csv,psycho,Lentiform Loewenfeld,3.3.14,no,과일,natural,no-correlation,0,None,,n,,n,None,a,0.0214000465348362,,542.2642000485212,,1116.9642000459137,0.0214000465348362,618.2913000229746,2,psycho,1024,2,48000,-16,experiment,999,odd,가방,artifactual,,64931.97030003648,11894.80360003654,11894.686099956743,,11350.94549995847,5697.0813999651,11894.025000045076,,64185.04869996104,5711.467099958099,65659.7194999922,65659.99720001128,6828.887799987569,64407.55899995565,,65040.52929999307,64157.407699967735,Extended template,0,0.786800286732614,31,yes,1024
0,0,0.0255437589657958,0.0255437589657958,white,yes,psycho,psycho,psycho,0,uniform,0,undefined,0,a,1,0,34,1,1,0,0,0,0,,34,0,34,34,0,34,1,34,34,Tue Dec  5 11:07:15 2023,A template containing a practice and an experimental phase,yes,언어학과심리실험_B조_기말과제용심리실험.osexp,C:\Users\caphi\Downloads,no,mono,no,18,no,black,no,no,768,psycho,31,31,0,C:\Users\caphi\Downloads\quickrun.csv,psycho,Lentiform Loewenfeld,3.3.14,no,도미노,artifactual,same phoneme,0,None,,n,,n,None,a,0.0306000001728534,,542.2642000485212,,1116.9642000459137,0.0306000001728534,1230.4533999413252,2,psycho,1024,2,48000,-16,experiment,999,odd,도서,artifactual,,66549.05100003816,11894.80360003654,11894.686099956743,,11350.94549995847,5697.0813999651,11894.025000045076,,65810.21779996809,5711.467099958099,67888.96730006672,67889.32970003225,6828.887799987569,66024.57859995775,,66657.38960006274,65777.6894000126,Extended template,0,0.8174002869054675,32,yes,1024
0,0,0.0254878858951005,0.0254878858951005,white,yes,psycho,psycho,psycho,0,uniform,0,undefined,0,a,1,0,35,1,1,0,0,0,0,,35,0,35,35,0,35,1,35,35,Tue Dec  5 11:07:15 2023,A template containing a practice and an experimental phase,yes,언어학과심리실험_B조_기말과제용심리실험.osexp,C:\Users\caphi\Downloads,no,mono,no,18,no,black,no,no,768,psycho,32,32,0,C:\Users\caphi\Downloads\quickrun.csv,psycho,Lentiform Loewenfeld,3.3.14,no,로켓,artifactual,same phoneme,0,None,,n,,n,None,a,0.0236999476328492,,542.2642000485212,,1116.9642000459137,0.0236999476328492,694.5668000262231,2,psycho,1024,2,48000,-16,experiment,999,odd,로봇,artifactual,,68773.06200005114,11894.80360003654,11894.686099956743,,11350.94549995847,5697.0813999651,11894.025000045076,,68009.83380002435,5711.467099958099,69595.06930003408,69595.36030003801,6828.887799987569,68241.08119995799,,68899.71639995929,67999.36470005196,Extended template,0,0.8411002345383167,33,yes,1024
0,0,0.0254058874869609,0.0254058874869609,white,yes,psycho,psycho,psycho,0,uniform,0,undefined,0,n,1,0,36,1,1,0,0,0,0,,36,0,36,36,0,36,1,36,36,Tue Dec  5 11:07:15 2023,A template containing a practice and an experimental phase,yes,언어학과심리실험_B조_기말과제용심리실험.osexp,C:\Users\caphi\Downloads,no,mono,no,18,no,black,no,no,768,psycho,33,33,0,C:\Users\caphi\Downloads\quickrun.csv,psycho,Lentiform Loewenfeld,3.3.14,no,동굴,natural,similar-environmental,0,None,,n,,n,None,n,0.0226999400183558,,542.2642000485212,,1116.9642000459137,0.0226999400183558,685.04359992221,2,psycho,1024,2,48000,-16,experiment,999,odd,박쥐,natural,,70490.15510000754,11894.80360003654,11894.686099956743,,11350.94549995847,5697.0813999651,11894.025000045076,,69726.44939995371,5711.467099958099,71301.36070004664,71301.65280005895,6828.887799987569,69967.2493999824,,70615.4062000569,69712.04180002678,Extended template,0,0.8638001745566726,34,yes,1024
0,0,0.0253457176898206,0.0253457176898206,white,yes,psycho,psycho,psycho,0,uniform,0,undefined,0,a,0,0,37,1,1,0,0,0,0,,37,0,37,37,0,37,1,37,37,Tue Dec  5 11:07:15 2023,A template containing a practice and an experimental phase,yes,언어학과심리실험_B조_기말과제용심리실험.osexp,C:\Users\caphi\Downloads,no,mono,no,18,no,black,no,no,768,psycho,34,34,0,C:\Users\caphi\Downloads\quickrun.csv,psycho,Lentiform Loewenfeld,3.3.14,no,바다,natural,same phoneme,0,None,,n,,n,None,n,0.0232999445870518,,542.2642000485212,,1116.9642000459137,0.0232999445870518,963.2020000135526,2,psycho,1024,2,48000,-16,experiment,999,odd,바구니,artifactual,,72183.63500002306,11894.80360003654,11894.686099956743,,11350.94549995847,5697.0813999651,11894.025000045076,,71427.09450004622,5711.467099958099,73271.06110006571,73271.40840003267,6828.887799987569,71656.61469998304,,72306.91000004299,71412.70520002581,Extended template,0,0.8871001191437244,35,yes,1024
0,0,0.0252888906591882,0.0252888906591882,white,yes,psycho,psycho,psycho,0,uniform,0,undefined,0,a,0,0,38,1,1,0,0,0,0,,38,0,38,38,0,38,1,38,38,Tue Dec  5 11:07:15 2023,A template containing a practice and an experimental phase,yes,언어학과심리실험_B조_기말과제용심리실험.osexp,C:\Users\caphi\Downloads,no,mono,no,18,no,black,no,no,768,psycho,35,35,0,C:\Users\caphi\Downloads\quickrun.csv,psycho,Lentiform Loewenfeld,3.3.14,no,영화,artifactual,similar-environmental,0,None,,n,,n,None,n,0.0232999445870518,,542.2642000485212,,1116.9642000459137,0.0232999445870518,1067.550400039181,2,psycho,1024,2,48000,-16,experiment,999,odd,드라마,artifactual,,74133.25089996215,11894.80360003654,11894.686099956743,,11350.94549995847,5697.0813999651,11894.025000045076,,73392.61370000895,5711.467099958099,75310.28810003772,75310.61429996043,6828.887799987569,73607.27449995466,,74241.86299997382,73376.11089996062,Extended template,0,0.9104000637307764,36,yes,1024
0,0,0.0252324357830189,0.0252324357830189,white,yes,psycho,psycho,psycho,0,uniform,0,undefined,0,a,1,0,39,1,1,0,0,0,0,,39,0,39,39,0,39,1,39,39,Tue Dec  5 11:07:15 2023,A template containing a practice and an experimental phase,yes,언어학과심리실험_B조_기말과제용심리실험.osexp,C:\Users\caphi\Downloads,no,mono,no,18,no,black,no,no,768,psycho,36,36,0,C:\Users\caphi\Downloads\quickrun.csv,psycho,Lentiform Loewenfeld,3.3.14,no,학교,artifactual,inclusive,0,None,,n,,n,None,a,0.0232000602409243,,542.2642000485212,,1116.9642000459137,0.0232000602409243,684.3256000429392,2,psycho,1024,2,48000,-16,experiment,999,odd,학생,artifactual,,76174.05140004121,11894.80360003654,11894.686099956743,,11350.94549995847,5697.0813999651,11894.025000045076,,75426.76980001852,5711.467099958099,76985.1834999863,76985.49720004667,6828.887799987569,75648.41510006227,,76299.88940001931,75417.24029998295,Extended template,0,0.9336001239717008,37,yes,1024
0,0,0.0252552655231403,0.0252552655231403,white,yes,psycho,psycho,psycho,0,uniform,0,undefined,0,x,1,0,40,1,1,0,0,0,0,,40,0,40,40,0,40,1,40,40,Tue Dec  5 11:07:15 2023,A template containing a practice and an experimental phase,yes,언어학과심리실험_B조_기말과제용심리실험.osexp,C:\Users\caphi\Downloads,no,mono,no,18,no,black,no,no,768,psycho,37,37,0,C:\Users\caphi\Downloads\quickrun.csv,psycho,Lentiform Loewenfeld,3.3.14,no,냉장고,artifactual,non-word,0,None,,n,,n,None,x,0.0260999659076333,,542.2642000485212,,1116.9642000459137,0.0260999659076333,1113.5720999445766,2,psycho,1024,2,48000,-16,experiment,999,odd,로방삭,non-word,,77874.33100002818,11894.80360003654,11894.686099956743,,11350.94549995847,5697.0813999651,11894.025000045076,,77126.48800003808,5711.467099958099,79105.37660005502,79105.77340004966,6828.887799987569,77357.75550000835,,77990.85050006397,77097.23610000219,Extended template,0,0.959700089879334,38,yes,1024
0,0,0.0254820542744337,0.0254820542744337,white,yes,psycho,psycho,psycho,0,uniform,0,undefined,0,a,1,0,41,1,1,0,0,0,0,,41,0,41,41,0,41,1,41,41,Tue Dec  5 11:07:15 2023,A template containing a practice and an experimental phase,yes,언어학과심리실험_B조_기말과제용심리실험.osexp,C:\Users\caphi\Downloads,no,mono,no,18,no,black,no,no,768,psycho,38,38,0,C:\Users\caphi\Downloads\quickrun.csv,psycho,Lentiform Loewenfeld,3.3.14,no,선설수,non-word,non-word,0,None,,n,,n,None,a,0.0341000268235802,,542.2642000485212,,1116.9642000459137,0.0341000268235802,743.6295999214053,2,psycho,1024,2,48000,-16,experiment,999,odd,시계,artifactual,,80007.74999998976,11894.80360003654,11894.686099956743,,11350.94549995847,5697.0813999651,11894.025000045076,,79252.95630004257,5711.467099958099,80885.69579995237,80886.10110001173,6828.887799987569,79473.44219998922,,80140.99730004091,79220.80600005575,Extended template,0,0.9938001167029142,39,yes,1024
0,0,0.0254850019700825,0.0254850019700825,white,yes,psycho,psycho,psycho,0,uniform,0,undefined,0,n,1,0,42,1,1,0,0,0,0,,42,0,42,42,0,42,1,42,42,Tue Dec  5 11:07:15 2023,A template containing a practice and an experimental phase,yes,언어학과심리실험_B조_기말과제용심리실험.osexp,C:\Users\caphi\Downloads,no,mono,no,18,no,black,no,no,768,psycho,39,39,0,C:\Users\caphi\Downloads\quickrun.csv,psycho,Lentiform Loewenfeld,3.3.14,no,다리,artifactual,similar-environmental,0,None,,n,,n,None,n,0.0255999621003866,,542.2642000485212,,1116.9642000459137,0.0255999621003866,791.0520000150427,2,psycho,1024,2,48000,-16,experiment,999,odd,강,natural,,81774.12039996125,11894.80360003654,11894.686099956743,,11350.94549995847,5697.0813999651,11894.025000045076,,81027.34819997568,5711.467099958099,82690.57660002727,82690.92750002164,6828.887799987569,81257.21499999054,,81898.56949995738,81014.62909998372,Extended template,0,1.0194000788033009,40,yes,1024
0,0,0.0255731723793759,0.0255731723793759,white,yes,psycho,psycho,psycho,0,uniform,0,undefined,0,a,1,0,43,1,1,0,0,0,0,,43,0,43,43,0,43,1,43,43,Tue Dec  5 11:07:15 2023,A template containing a practice and an experimental phase,yes,언어학과심리실험_B조_기말과제용심리실험.osexp,C:\Users\caphi\Downloads,no,mono,no,18,no,black,no,no,768,psycho,40,40,0,C:\Users\caphi\Downloads\quickrun.csv,psycho,Lentiform Loewenfeld,3.3.14,no,가방,artifactual,no-correlation,0,None,,n,,n,None,a,0.0290999887511134,,542.2642000485212,,1116.9642000459137,0.0290999887511134,684.2064000666142,2,psycho,1024,2,48000,-16,experiment,999,odd,기차,artifactual,,83574.65880003292,11894.80360003654,11894.686099956743,,11350.94549995847,5697.0813999651,11894.025000045076,,82835.67870000843,5711.467099958099,84376.66439998429,84377.06219998654,6828.887799987569,83056.77090003155,,83691.33589998819,82804.41620002966,Extended template,0,1.0485000675544145,41,yes,1024
0,0,0.0255904797952444,0.0255904797952444,white,yes,psycho,psycho,psycho,0,uniform,0,undefined,0,a,0,0,44,1,1,0,0,0,0,,44,0,44,44,0,44,1,44,44,Tue Dec  5 11:07:15 2023,A template containing a practice and an experimental phase,yes,언어학과심리실험_B조_기말과제용심리실험.osexp,C:\Users\caphi\Downloads,no,mono,no,18,no,black,no,no,768,psycho,41,41,0,C:\Users\caphi\Downloads\quickrun.csv,psycho,Lentiform Loewenfeld,3.3.14,no,피자,artifactual,similar-environmental,0,None,,n,,n,None,n,0.0263000838458538,,542.2642000485212,,1116.9642000459137,0.0263000838458538,1046.2818999076262,2,psycho,1024,2,48000,-16,experiment,999,odd,파스타,artifactual,,85273.94650003407,11894.80360003654,11894.686099956743,,11350.94549995847,5697.0813999651,11894.025000045076,,84527.38430001773,5711.467099958099,86446.71629997902,86447.12839997374,6828.887799987569,84741.17219995242,,85399.23830004409,84490.10429996997,Extended template,0,1.074800151400268,42,yes,1024
0,0,0.0255069787462436,0.0255069787462436,white,yes,psycho,psycho,psycho,0,uniform,0,undefined,0,n,1,0,45,1,1,0,0,0,0,,45,0,45,45,0,45,1,45,45,Tue Dec  5 11:07:15 2023,A template containing a practice and an experimental phase,yes,언어학과심리실험_B조_기말과제용심리실험.osexp,C:\Users\caphi\Downloads,no,mono,no,18,no,black,no,no,768,psycho,42,42,0,C:\Users\caphi\Downloads\quickrun.csv,psycho,Lentiform Loewenfeld,3.3.14,no,소방서,artifactual,same phoneme,0,None,,n,,n,None,n,0.0219999346882104,,542.2642000485212,,1116.9642000459137,0.0219999346882104,677.6156999403611,2,psycho,1024,2,48000,-16,experiment,999,odd,소나무,natural,,87306.72410002444,11894.80360003654,11894.686099956743,,11350.94549995847,5697.0813999651,11894.025000045076,,86577.2099000169,5711.467099958099,88110.60050001834,88110.93560000882,6828.887799987569,86791.09209997114,,87431.98650004342,86562.21410003491,Extended template,0,1.0968000860884786,43,yes,1024
0,0,0.0254477305464785,0.0254477305464785,white,yes,psycho,psycho,psycho,0,uniform,0,undefined,0,x,1,0,46,1,1,0,0,0,0,,46,0,46,46,0,46,1,46,46,Tue Dec  5 11:07:15 2023,A template containing a practice and an experimental phase,yes,언어학과심리실험_B조_기말과제용심리실험.osexp,C:\Users\caphi\Downloads,no,mono,no,18,no,black,no,no,768,psycho,43,43,0,C:\Users\caphi\Downloads\quickrun.csv,psycho,Lentiform Loewenfeld,3.3.14,no,벨트,artifactual,non-word,0,None,,n,,n,None,x,0.0229000579565763,,542.2642000485212,,1116.9642000459137,0.0229000579565763,789.8439000127837,2,psycho,1024,2,48000,-16,experiment,999,odd,진웬,non-word,,88974.10520003177,11894.80360003654,11894.686099956743,,11350.94549995847,5697.0813999651,11894.025000045076,,88242.80410003848,5711.467099958099,89881.26499997452,89881.61659997422,6828.887799987569,88457.13430002797,,89090.36929998547,88225.09960003663,Extended template,0,1.119700144045055,44,yes,1024
0,0,0.0253844488826062,0.0253844488826062,white,yes,psycho,psycho,psycho,0,uniform,0,undefined,0,a,1,0,47,1,1,0,0,0,0,,47,0,47,47,0,47,1,47,47,Tue Dec  5 11:07:15 2023,A template containing a practice and an experimental phase,yes,언어학과심리실험_B조_기말과제용심리실험.osexp,C:\Users\caphi\Downloads,no,mono,no,18,no,black,no,no,768,psycho,44,44,0,C:\Users\caphi\Downloads\quickrun.csv,psycho,Lentiform Loewenfeld,3.3.14,no,성냥,artifactual,same phoneme,0,None,,n,,n,None,a,0.0226000556722283,,542.2642000485212,,1116.9642000459137,0.0226000556722283,706.4733000006527,2,psycho,1024,2,48000,-16,experiment,999,odd,성적표,artifactual,,90757.7393000247,11894.80360003654,11894.686099956743,,11350.94549995847,5697.0813999651,11894.025000045076,,90027.15950005222,5711.467099958099,91581.2913000118,91581.6499000648,6828.887799987569,90240.87570002304,,90873.83940001018,89992.55129997618,Extended template,0,1.1423001997172832,45,yes,1024
0,0,0.0253043532290536,0.0253043532290536,white,yes,psycho,psycho,psycho,0,uniform,0,undefined,0,a,1,0,48,1,1,0,0,0,0,,48,0,48,48,0,48,1,48,48,Tue Dec  5 11:07:15 2023,A template containing a practice and an experimental phase,yes,언어학과심리실험_B조_기말과제용심리실험.osexp,C:\Users\caphi\Downloads,no,mono,no,18,no,black,no,no,768,psycho,45,45,0,C:\Users\caphi\Downloads\quickrun.csv,psycho,Lentiform Loewenfeld,3.3.14,no,키보드,artifactual,similar-environmental,0,None,,n,,n,None,a,0.0217000488191843,,542.2642000485212,,1116.9642000459137,0.0217000488191843,618.9452999969944,2,psycho,1024,2,48000,-16,experiment,999,odd,컴퓨터,artifactual,,92465.28760006186,11894.80360003654,11894.686099956743,,11350.94549995847,5697.0813999651,11894.025000045076,,91710.48400003929,5711.467099958099,93211.10249997582,93211.45639999304,6828.887799987569,91940.94350002706,,92591.18400001898,91695.42250002269,Extended template,0,1.1640002485364676,46,yes,1024
0,0,0.0254851121930999,0.0254851121930999,white,yes,psycho,psycho,psycho,0,uniform,0,undefined,0,n,1,0,49,1,1,0,0,0,0,,49,0,49,49,0,49,1,49,49,Tue Dec  5 11:07:15 2023,A template containing a practice and an experimental phase,yes,언어학과심리실험_B조_기말과제용심리실험.osexp,C:\Users\caphi\Downloads,no,mono,no,18,no,black,no,no,768,psycho,46,46,0,C:\Users\caphi\Downloads\quickrun.csv,psycho,Lentiform Loewenfeld,3.3.14,no,모래,natural,similar-environmental,0,None,,n,,n,None,n,0.0338000245392322,,542.2642000485212,,1116.9642000459137,0.0338000245392322,680.8026999933645,2,psycho,1024,2,48000,-16,experiment,999,odd,자갈,natural,,94115.53279997317,11894.80360003654,11894.686099956743,,11350.94549995847,5697.0813999651,11894.025000045076,,93360.95420003404,5711.467099958099,94921.96259996854,94922.4473000504,6828.887799987569,93582.55579997784,,94240.11350004002,93324.46809997782,Extended template,0,1.1978002730756998,47,yes,1024
0,0,0.0254208401505214,0.0254208401505214,white,yes,psycho,psycho,psycho,0,uniform,0,undefined,0,n,1,0,50,1,1,0,0,0,0,,50,0,50,50,0,50,1,50,50,Tue Dec  5 11:07:15 2023,A template containing a practice and an experimental phase,yes,언어학과심리실험_B조_기말과제용심리실험.osexp,C:\Users\caphi\Downloads,no,mono,no,18,no,black,no,no,768,psycho,47,47,0,C:\Users\caphi\Downloads\quickrun.csv,psycho,Lentiform Loewenfeld,3.3.14,no,밤하늘,natural,no-correlation,0,None,,n,,n,None,n,0.0224000541493296,,542.2642000485212,,1116.9642000459137,0.0224000541493296,640.8379999920726,2,psycho,1024,2,48000,-16,experiment,999,odd,바위,natural,,95774.27970001008,11894.80360003654,11894.686099956743,,11350.94549995847,5697.0813999651,11894.025000045076,,95043.7958999537,5711.467099958099,96541.06439999305,96541.43430001568,6828.887799987569,95259.18110006025,,95899.30709998588,95033.02450000774,Extended template,0,1.2202003272250297,48,yes,1024
0,0,0.0253387831379564,0.0253387831379564,white,yes,psycho,psycho,psycho,0,uniform,0,undefined,0,n,1,0,51,1,1,0,0,0,0,,51,0,51,51,0,51,1,51,51,Tue Dec  5 11:07:15 2023,A template containing a practice and an experimental phase,yes,언어학과심리실험_B조_기말과제용심리실험.osexp,C:\Users\caphi\Downloads,no,mono,no,18,no,black,no,no,768,psycho,48,48,0,C:\Users\caphi\Downloads\quickrun.csv,psycho,Lentiform Loewenfeld,3.3.14,no,호랑이,natural,same phoneme,0,None,,n,,n,None,n,0.0214000465348362,,542.2642000485212,,1116.9642000459137,0.0214000465348362,655.3820999106392,2,psycho,1024,2,48000,-16,experiment,999,odd,호수,natural,,97441.27139996272,11894.80360003654,11894.686099956743,,11350.94549995847,5697.0813999651,11894.025000045076,,96686.27659999764,5711.467099958099,98221.65449999738,98222.0299000619,6828.887799987569,96916.41790000722,,97565.35000004806,96656.20840003248,Extended template,0,1.2416003737598658,49,yes,1024
0,0,0.0254680076614022,0.0254680076614022,white,yes,psycho,psycho,psycho,0,uniform,0,undefined,0,n,1,0,52,1,1,0,0,0,0,,52,0,52,52,0,52,1,52,52,Tue Dec  5 11:07:15 2023,A template containing a practice and an experimental phase,yes,언어학과심리실험_B조_기말과제용심리실험.osexp,C:\Users\caphi\Downloads,no,mono,no,18,no,black,no,no,768,psycho,49,49,0,C:\Users\caphi\Downloads\quickrun.csv,psycho,Lentiform Loewenfeld,3.3.14,no,과일,natural,inclusive,0,None,,n,,n,None,n,0.0318000093102455,,542.2642000485212,,1116.9642000459137,0.0318000093102455,573.0849999235943,2,psycho,1024,2,48000,-16,experiment,999,odd,사과,natural,,99091.05499996804,11894.80360003654,11894.686099956743,,11350.94549995847,5697.0813999651,11894.025000045076,,98350.92920006718,5711.467099958099,99782.18700003345,99782.67059999052,6828.887799987569,98584.85129999464,,99207.81040005386,98331.50169998407,Extended template,0,1.2734003830701113,50,yes,1024
0,0,0.0254764774010754,0.0254764774010754,white,yes,psycho,psycho,psycho,0,uniform,0,undefined,0,a,1,0,53,1,1,0,0,0,0,,53,0,53,53,0,53,1,53,53,Tue Dec  5 11:07:15 2023,A template containing a practice and an experimental phase,yes,언어학과심리실험_B조_기말과제용심리실험.osexp,C:\Users\caphi\Downloads,no,mono,no,18,no,black,no,no,768,psycho,50,50,0,C:\Users\caphi\Downloads\quickrun.csv,psycho,Lentiform Loewenfeld,3.3.14,no,소나무,natural,same phoneme,0,None,,n,,n,None,a,0.0258999643847346,,542.2642000485212,,1116.9642000459137,0.0258999643847346,711.4642000524327,2,psycho,1024,2,48000,-16,experiment,999,odd,소방서,artifactual,,100673.77590003888,11894.80360003654,11894.686099956743,,11350.94549995847,5697.0813999651,11894.025000045076,,99927.25489998702,5711.467099958099,101511.16100000218,101511.58849999774,6828.887799987569,100157.889300026,,100798.693299992,99897.25320006257,Extended template,0,1.299300347454846,51,yes,1024
0,0,0.0254692388877559,0.0254692388877559,white,yes,psycho,psycho,psycho,0,uniform,0,undefined,0,a,1,0,54,1,1,0,0,0,0,,54,0,54,54,0,54,1,54,54,Tue Dec  5 11:07:15 2023,A template containing a practice and an experimental phase,yes,언어학과심리실험_B조_기말과제용심리실험.osexp,C:\Users\caphi\Downloads,no,mono,no,18,no,black,no,no,768,psycho,51,51,0,C:\Users\caphi\Downloads\quickrun.csv,psycho,Lentiform Loewenfeld,3.3.14,no,플피,non-word,non-word,0,None,,n,,n,None,a,0.0251000747084617,,542.2642000485212,,1116.9642000459137,0.0251000747084617,687.9393000854179,2,psycho,1024,2,48000,-16,experiment,999,odd,책상,artifactual,,102399.8450000072,11894.80360003654,11894.686099956743,,11350.94549995847,5697.0813999651,11894.025000045076,,101652.40420005284,5711.467099958099,103195.9794999566,103196.40450004954,6828.887799987569,101874.81690000276,,102507.01279996429,101622.90009995922,Extended template,0,1.3244004221633077,52,yes,1024
0,0,0.0254075539315927,0.0254075539315927,white,yes,psycho,psycho,psycho,0,uniform,0,undefined,0,a,0,0,55,1,1,0,0,0,0,,55,0,55,55,0,55,1,55,55,Tue Dec  5 11:07:15 2023,A template containing a practice and an experimental phase,yes,언어학과심리실험_B조_기말과제용심리실험.osexp,C:\Users\caphi\Downloads,no,mono,no,18,no,black,no,no,768,psycho,52,52,0,C:\Users\caphi\Downloads\quickrun.csv,psycho,Lentiform Loewenfeld,3.3.14,no,바다,natural,similar-environmental,0,None,,n,,n,None,n,0.0221999362111091,,542.2642000485212,,1116.9642000459137,0.0221999362111091,827.9862999916077,2,psycho,1024,2,48000,-16,experiment,999,odd,배,artifactual,,104083.06219999211,11894.80360003654,11894.686099956743,,11350.94549995847,5697.0813999651,11894.025000045076,,103336.3551000366,5711.467099958099,105044.22130004968,105044.60769996513,6828.887799987569,103557.92589997873,,104215.24559997488,103304.06410002615,Extended template,0,1.3466003583744168,53,yes,1024
0,0,0.025362970686897,0.025362970686897,white,yes,psycho,psycho,psycho,0,uniform,0,undefined,0,a,1,0,56,1,1,0,0,0,0,,56,0,56,56,0,56,1,56,56,Tue Dec  5 11:07:15 2023,A template containing a practice and an experimental phase,yes,언어학과심리실험_B조_기말과제용심리실험.osexp,C:\Users\caphi\Downloads,no,mono,no,18,no,black,no,no,768,psycho,53,53,0,C:\Users\caphi\Downloads\quickrun.csv,psycho,Lentiform Loewenfeld,3.3.14,no,호수,natural,no-correlation,0,None,,n,,n,None,a,0.0230000587180256,,542.2642000485212,,1116.9642000459137,0.0230000587180256,657.6735000126064,2,psycho,1024,2,48000,-16,experiment,999,odd,대학교,artifactual,,105957.05369999632,11894.80360003654,11894.686099956743,,11350.94549995847,5697.0813999651,11894.025000045076,,105200.59999998192,5711.467099958099,106741.08109995724,106741.47780006751,6828.887799987569,105434.06610004604,,106082.42180000524,105155.78829997683,Extended template,0,1.3696004170924423,54,yes,1024
0,0,0.025354554368691,0.025354554368691,white,yes,psycho,psycho,psycho,0,uniform,0,undefined,0,n,1,0,57,1,1,0,0,0,0,,57,0,57,57,0,57,1,57,57,Tue Dec  5 11:07:15 2023,A template containing a practice and an experimental phase,yes,언어학과심리실험_B조_기말과제용심리실험.osexp,C:\Users\caphi\Downloads,no,mono,no,18,no,black,no,no,768,psycho,54,54,0,C:\Users\caphi\Downloads\quickrun.csv,psycho,Lentiform Loewenfeld,3.3.14,no,태양계,natural,inclusive,0,None,,n,,n,None,n,0.024900073185563,,542.2642000485212,,1116.9642000459137,0.024900073185563,729.8296000808477,2,psycho,1024,2,48000,-16,experiment,999,odd,목성,natural,,107606.97149997576,11894.80360003654,11894.686099956743,,11350.94549995847,5697.0813999651,11894.025000045076,,106877.06039997283,5711.467099958099,108471.26989997923,108471.78600006735,6828.887799987569,107098.58860005625,,107740.364999976,106857.62560006695,Extended template,0,1.3945004902780056,55,yes,1024
0,0,0.0253803674630554,0.0253803674630554,white,yes,psycho,psycho,psycho,0,uniform,0,undefined,0,a,1,0,58,1,1,0,0,0,0,,58,0,58,58,0,58,1,58,58,Tue Dec  5 11:07:15 2023,A template containing a practice and an experimental phase,yes,언어학과심리실험_B조_기말과제용심리실험.osexp,C:\Users\caphi\Downloads,no,mono,no,18,no,black,no,no,768,psycho,55,55,0,C:\Users\caphi\Downloads\quickrun.csv,psycho,Lentiform Loewenfeld,3.3.14,no,계곡,natural,no-correlation,0,None,,n,,n,None,a,0.0268000876531004,,542.2642000485212,,1116.9642000459137,0.0268000876531004,685.327099985443,2,psycho,1024,2,48000,-16,experiment,999,odd,화장실,artifactual,,109373.67979995906,11894.80360003654,11894.686099956743,,11350.94549995847,5697.0813999651,11894.025000045076,,108618.08429996016,5711.467099958099,110176.3203999726,110176.78880004678,6828.887799987569,108850.07629997564,,109489.99779997392,108585.1245999802,Extended template,0,1.421300577931106,56,yes,1024
0,0,0.02535439521205,0.02535439521205,white,yes,psycho,psycho,psycho,0,uniform,0,undefined,0,n,1,0,59,1,1,0,0,0,0,,59,0,59,59,0,59,1,59,59,Tue Dec  5 11:07:15 2023,A template containing a practice and an experimental phase,yes,언어학과심리실험_B조_기말과제용심리실험.osexp,C:\Users\caphi\Downloads,no,mono,no,18,no,black,no,no,768,psycho,56,56,0,C:\Users\caphi\Downloads\quickrun.csv,psycho,Lentiform Loewenfeld,3.3.14,no,상새고,non-word,non-word,0,None,,n,,n,None,n,0.0238999491557478,,542.2642000485212,,1116.9642000459137,0.0238999491557478,945.9006000543012,2,psycho,1024,2,48000,-16,experiment,999,odd,나뭇잎,natural,,111098.73990004417,11894.80360003654,11894.686099956743,,11350.94549995847,5697.0813999651,11894.025000045076,,110353.59339998104,5711.467099958099,112154.37540004496,112154.80460005348,6828.887799987569,110574.95459995698,,111207.40219997242,110304.89130003843,Extended template,0,1.445200527086854,57,yes,1024
0,0,0.0253344910090853,0.0253344910090853,white,yes,psycho,psycho,psycho,0,uniform,0,undefined,0,n,1,0,60,1,1,0,0,0,0,,60,0,60,60,0,60,1,60,60,Tue Dec  5 11:07:15 2023,A template containing a practice and an experimental phase,yes,언어학과심리실험_B조_기말과제용심리실험.osexp,C:\Users\caphi\Downloads,no,mono,no,18,no,black,no,no,768,psycho,57,57,0,C:\Users\caphi\Downloads\quickrun.csv,psycho,Lentiform Loewenfeld,3.3.14,no,의자,artifactual,no-correlation,0,None,,n,,n,None,n,0.0241999514400959,,542.2642000485212,,1116.9642000459137,0.0241999514400959,689.704000018537,2,psycho,1024,2,48000,-16,experiment,999,odd,행성,natural,,113057.68450000323,11894.80360003654,11894.686099956743,,11350.94549995847,5697.0813999651,11894.025000045076,,112310.081899981,5711.467099958099,113873.4456000384,113873.89100005385,6828.887799987569,112524.47539998684,,113182.69639997745,112282.44209999684,Extended template,0,1.46940047852695,58,yes,1024
0,0,0.0252830578898221,0.0252830578898221,white,yes,psycho,psycho,psycho,0,uniform,0,undefined,0,a,1,0,61,1,1,0,0,0,0,,61,0,61,61,0,61,1,61,61,Tue Dec  5 11:07:15 2023,A template containing a practice and an experimental phase,yes,언어학과심리실험_B조_기말과제용심리실험.osexp,C:\Users\caphi\Downloads,no,mono,no,18,no,black,no,no,768,psycho,58,58,0,C:\Users\caphi\Downloads\quickrun.csv,psycho,Lentiform Loewenfeld,3.3.14,no,바람,natural,similar-environmental,0,None,,n,,n,None,a,0.0222999369725585,,542.2642000485212,,1116.9642000459137,0.0222999369725585,746.1187000153586,2,psycho,1024,2,48000,-16,experiment,999,odd,창문,artifactual,,114741.16229999343,11894.80360003654,11894.686099956743,,11350.94549995847,5697.0813999651,11894.025000045076,,113994.1031000344,5711.467099958099,115604.53100001904,115605.02570006064,6828.887799987569,114216.36850002687,,114857.383799972,113982.28620004376,Extended template,0,1.4917004154995084,59,yes,1024
0,0,0.0252766728711624,0.0252766728711624,white,yes,psycho,psycho,psycho,0,uniform,0,undefined,0,a,1,0,62,1,1,0,0,0,0,,62,0,62,62,0,62,1,62,62,Tue Dec  5 11:07:15 2023,A template containing a practice and an experimental phase,yes,언어학과심리실험_B조_기말과제용심리실험.osexp,C:\Users\caphi\Downloads,no,mono,no,18,no,black,no,no,768,psycho,59,59,0,C:\Users\caphi\Downloads\quickrun.csv,psycho,Lentiform Loewenfeld,3.3.14,no,국가,artifactual,inclusive,0,None,,n,,n,None,a,0.0248999567702412,,542.2642000485212,,1116.9642000459137,0.0248999567702412,702.8881000587717,2,psycho,1024,2,48000,-16,experiment,999,odd,대한민국,artifactual,,116507.42280005944,11894.80360003654,11894.686099956743,,11350.94549995847,5697.0813999651,11894.025000045076,,115761.20259996968,5711.467099958099,117331.01840002928,117331.4649000531,6828.887799987569,115991.44640006124,,116624.62929997128,115719.1715000663,Extended template,0,1.5166003722697496,60,yes,1024
0,0,0.0253082024025135,0.0253082024025135,white,yes,psycho,psycho,psycho,0,uniform,0,undefined,0,n,1,0,63,1,1,0,0,0,0,,63,0,63,63,0,63,1,63,63,Tue Dec  5 11:07:15 2023,A template containing a practice and an experimental phase,yes,언어학과심리실험_B조_기말과제용심리실험.osexp,C:\Users\caphi\Downloads,no,mono,no,18,no,black,no,no,768,psycho,60,60,0,C:\Users\caphi\Downloads\quickrun.csv,psycho,Lentiform Loewenfeld,3.3.14,no,오일,natural,same phoneme,0,None,,n,,n,None,n,0.027199974283576,,542.2642000485212,,1116.9642000459137,0.027199974283576,708.0216000322253,2,psycho,1024,2,48000,-16,experiment,999,odd,오리,natural,,118190.60360000005,11894.80360003654,11894.686099956743,,11350.94549995847,5697.0813999651,11894.025000045076,,117460.21910000128,5711.467099958099,119017.3216999974,119017.7838000236,6828.887799987569,117683.42550005764,,118308.08360001538,117449.58759995645,Extended template,0,1.5438003465533257,61,yes,1024
0,0,0.0252612967855267,0.0252612967855267,white,yes,psycho,psycho,psycho,0,uniform,0,undefined,0,n,1,0,64,1,1,0,0,0,0,,64,0,64,64,0,64,1,64,64,Tue Dec  5 11:07:15 2023,A template containing a practice and an experimental phase,yes,언어학과심리실험_B조_기말과제용심리실험.osexp,C:\Users\caphi\Downloads,no,mono,no,18,no,black,no,no,768,psycho,61,61,0,C:\Users\caphi\Downloads\quickrun.csv,psycho,Lentiform Loewenfeld,3.3.14,no,스노우보드,artifactual,no-correlation,0,None,,n,,n,None,n,0.0224000541493296,,542.2642000485212,,1116.9642000459137,0.0224000541493296,696.1319999536499,2,psycho,1024,2,48000,-16,experiment,999,odd,소나무,natural,,119874.93489996996,11894.80360003654,11894.686099956743,,11350.94549995847,5697.0813999651,11894.025000045076,,119143.77770002466,5711.467099958099,120696.42259995452,120696.85359997676,6828.887799987569,119357.66830004286,,119999.21230005566,119126.14870001562,Extended template,0,1.566200400702655,62,yes,1024
0,0,0.0252111164468621,0.0252111164468621,white,yes,psycho,psycho,psycho,0,uniform,0,undefined,0,a,1,0,65,1,1,0,0,0,0,,65,0,65,65,0,65,1,65,65,Tue Dec  5 11:07:15 2023,A template containing a practice and an experimental phase,yes,언어학과심리실험_B조_기말과제용심리실험.osexp,C:\Users\caphi\Downloads,no,mono,no,18,no,black,no,no,768,psycho,62,62,0,C:\Users\caphi\Downloads\quickrun.csv,psycho,Lentiform Loewenfeld,3.3.14,no,건물,artifactual,inclusive,0,None,,n,,n,None,a,0.0220999354496598,,542.2642000485212,,1116.9642000459137,0.0220999354496598,922.8644999675452,2,psycho,1024,2,48000,-16,experiment,999,odd,병원,artifactual,,121582.93479995336,11894.80360003654,11894.686099956743,,11350.94549995847,5697.0813999651,11894.025000045076,,120843.00300001632,5711.467099958099,122614.95880002622,122615.41039997246,6828.887799987569,121058.78550000487,,121691.0166000016,120810.242400039,Extended template,0,1.5883003361523151,63,yes,1024
0,0,0.0251578185270773,0.0251578185270773,white,yes,psycho,psycho,psycho,0,uniform,0,undefined,0,n,1,0,66,1,1,0,0,0,0,,66,0,66,66,0,66,1,66,66,Tue Dec  5 11:07:15 2023,A template containing a practice and an experimental phase,yes,언어학과심리실험_B조_기말과제용심리실험.osexp,C:\Users\caphi\Downloads,no,mono,no,18,no,black,no,no,768,psycho,63,63,0,C:\Users\caphi\Downloads\quickrun.csv,psycho,Lentiform Loewenfeld,3.3.14,no,태양,natural,same phoneme,0,None,,n,,n,None,n,0.0218000495806336,,542.2642000485212,,1116.9642000459137,0.0218000495806336,754.1479000356048,2,psycho,1024,2,48000,-16,experiment,999,odd,태풍,natural,,123491.19700002484,11894.80360003654,11894.686099956743,,11350.94549995847,5697.0813999651,11894.025000045076,,122743.59359999651,5711.467099958099,124371.34399998467,124371.8544000294,6828.887799987569,122984.17039995547,,123616.09909997787,122723.4945000382,Extended template,0,1.6101003857329488,64,yes,1024
0,0,0.0251461590568606,0.0251461590568606,white,yes,psycho,psycho,psycho,0,uniform,0,undefined,0,n,1,0,67,1,1,0,0,0,0,,67,0,67,67,0,67,1,67,67,Tue Dec  5 11:07:15 2023,A template containing a practice and an experimental phase,yes,언어학과심리실험_B조_기말과제용심리실험.osexp,C:\Users\caphi\Downloads,no,mono,no,18,no,black,no,no,768,psycho,64,64,0,C:\Users\caphi\Downloads\quickrun.csv,psycho,Lentiform Loewenfeld,3.3.14,no,불,natural,no-correlation,0,None,,n,,n,None,n,0.0243999529629945,,542.2642000485212,,1116.9642000459137,0.0243999529629945,1721.0809000534937,2,psycho,1024,2,48000,-16,experiment,999,odd,물고기,natural,,125241.1531000398,11894.80360003654,11894.686099956743,,11350.94549995847,5697.0813999651,11894.025000045076,,124510.22369996645,5711.467099958099,127106.29530006554,127106.77369998302,6828.887799987569,124733.19559998345,,125383.8641999755,124494.51520002911,Extended template,0,1.6345003386959434,65,yes,1024
0,0,0.0251212164364529,0.0251212164364529,white,yes,psycho,psycho,psycho,0,uniform,0,undefined,0,n,1,0,68,1,1,0,0,0,0,,68,0,68,68,0,68,1,68,68,Tue Dec  5 11:07:15 2023,A template containing a practice and an experimental phase,yes,언어학과심리실험_B조_기말과제용심리실험.osexp,C:\Users\caphi\Downloads,no,mono,no,18,no,black,no,no,768,psycho,65,65,0,C:\Users\caphi\Downloads\quickrun.csv,psycho,Lentiform Loewenfeld,3.3.14,no,언덕,natural,no-correlation,0,None,,n,,n,None,n,0.0234999461099505,,542.2642000485212,,1116.9642000459137,0.0234999461099505,1454.6674999874083,2,psycho,1024,2,48000,-16,experiment,999,odd,고양이,natural,,127957.89039996453,11894.80360003654,11894.686099956743,,11350.94549995847,5697.0813999651,11894.025000045076,,127227.26009995677,5711.467099958099,129546.57600005156,129547.0339000458,6828.887799987569,127449.56680003088,,128090.86570004,127216.95390006062,Extended template,0,1.658000284805894,66,yes,1024
0,0,0.0250806003364164,0.0250806003364164,white,yes,psycho,psycho,psycho,0,uniform,0,undefined,0,n,1,0,69,1,1,0,0,0,0,,69,0,69,69,0,69,1,69,69,Tue Dec  5 11:07:15 2023,A template containing a practice and an experimental phase,yes,언어학과심리실험_B조_기말과제용심리실험.osexp,C:\Users\caphi\Downloads,no,mono,no,18,no,black,no,no,768,psycho,66,66,0,C:\Users\caphi\Downloads\quickrun.csv,psycho,Lentiform Loewenfeld,3.3.14,no,해마,natural,same phoneme,0,None,,n,,n,None,n,0.0223999377340078,,542.2642000485212,,1116.9642000459137,0.0223999377340078,2167.7517000352964,2,psycho,1024,2,48000,-16,experiment,999,odd,해질녘,natural,,130440.64010004512,11894.80360003654,11894.686099956743,,11350.94549995847,5697.0813999651,11894.025000045076,,129676.90209997818,5711.467099958099,132726.55000002123,132727.016299963,6828.887799987569,129907.70320000593,,130557.78010003269,129659.25510006493,Extended template,0,1.6804002225399015,67,yes,1024
0,0,0.0250588260207544,0.0250588260207544,white,yes,psycho,psycho,psycho,0,uniform,0,undefined,0,n,1,0,70,1,1,0,0,0,0,,70,0,70,70,0,70,1,70,70,Tue Dec  5 11:07:15 2023,A template containing a practice and an experimental phase,yes,언어학과심리실험_B조_기말과제용심리실험.osexp,C:\Users\caphi\Downloads,no,mono,no,18,no,black,no,no,768,psycho,67,67,0,C:\Users\caphi\Downloads\quickrun.csv,psycho,Lentiform Loewenfeld,3.3.14,no,멜블옴,non-word,non-word,0,None,,n,,n,None,n,0.0235999468713998,,542.2642000485212,,1116.9642000459137,0.0235999468713998,1763.378500007093,2,psycho,1024,2,48000,-16,experiment,999,odd,폭포,natural,,133590.54600005038,11894.80360003654,11894.686099956743,,11350.94549995847,5697.0813999651,11894.025000045076,,132861.48810002487,5711.467099958099,135481.40140005853,135481.89619998448,6828.887799987569,133074.59560001735,,133716.9772000052,132841.74349997193,Extended template,0,1.7040001694113016,68,yes,1024
0,0,0.0250376845318554,0.0250376845318554,white,yes,psycho,psycho,psycho,0,uniform,0,undefined,0,n,1,0,71,1,1,0,0,0,0,,71,0,71,71,0,71,1,71,71,Tue Dec  5 11:07:15 2023,A template containing a practice and an experimental phase,yes,언어학과심리실험_B조_기말과제용심리실험.osexp,C:\Users\caphi\Downloads,no,mono,no,18,no,black,no,no,768,psycho,68,68,0,C:\Users\caphi\Downloads\quickrun.csv,psycho,Lentiform Loewenfeld,3.3.14,no,스노우보드,artifactual,no-correlation,0,None,,n,,n,None,n,0.0236000632867217,,542.2642000485212,,1116.9642000459137,0.0236000632867217,5158.590499893762,2,psycho,1024,2,48000,-16,experiment,999,odd,꽃,natural,,136390.4989999719,11894.80360003654,11894.686099956743,,11350.94549995847,5697.0813999651,11894.025000045076,,135652.61610003654,5711.467099958099,141676.6272999812,141677.10990004707,6828.887799987569,135883.8041999843,,136516.87190006487,135623.0158000253,Extended template,0,1.727600232698023,69,yes,1024
0,0,0.0249671467047716,0.0249671467047716,white,yes,psycho,psycho,psycho,0,uniform,0,undefined,0,a,1,0,72,1,1,0,0,0,0,,72,0,72,72,0,72,1,72,72,Tue Dec  5 11:07:15 2023,A template containing a practice and an experimental phase,yes,언어학과심리실험_B조_기말과제용심리실험.osexp,C:\Users\caphi\Downloads,no,mono,no,18,no,black,no,no,768,psycho,69,69,0,C:\Users\caphi\Downloads\quickrun.csv,psycho,Lentiform Loewenfeld,3.3.14,no,벌레,natural,same phoneme,0,None,,n,,n,None,a,0.0201000366359949,,542.2642000485212,,1116.9642000459137,0.0201000366359949,984.0323000680656,2,psycho,1024,2,48000,-16,experiment,999,odd,발레,artifactual,,142550.76250003185,11894.80360003654,11894.686099956743,,11350.94549995847,5697.0813999651,11894.025000045076,,141810.73540006764,5711.467099958099,143642.48449995648,143642.95490004588,6828.887799987569,142024.36909999233,,142657.37549995538,141787.0752000017,Extended template,0,1.7477002693340182,70,yes,1024
0,0,0.0249887357505274,0.0249887357505274,white,yes,psycho,psycho,psycho,0,uniform,0,undefined,0,a,1,0,73,1,1,0,0,0,0,,73,0,73,73,0,73,1,73,73,Tue Dec  5 11:07:15 2023,A template containing a practice and an experimental phase,yes,언어학과심리실험_B조_기말과제용심리실험.osexp,C:\Users\caphi\Downloads,no,mono,no,18,no,black,no,no,768,psycho,70,70,0,C:\Users\caphi\Downloads\quickrun.csv,psycho,Lentiform Loewenfeld,3.3.14,no,눈,natural,similar-environmental,0,None,,n,,n,None,a,0.0264999689534306,,542.2642000485212,,1116.9642000459137,0.0264999689534306,734.7305000294,2,psycho,1024,2,48000,-16,experiment,999,odd,스키,artifactual,,144558.36719996296,11894.80360003654,11894.686099956743,,11350.94549995847,5697.0813999651,11894.025000045076,,143804.97589998413,5711.467099958099,145427.4693999905,145428.01989999134,6828.887799987569,144050.9677999653,,144691.66150002275,143760.57120005134,Extended template,0,1.7742002382874489,71,yes,1024
0,0,0.0249388928447539,0.0249388928447539,white,yes,psycho,psycho,psycho,0,uniform,0,undefined,0,x,1,0,74,1,1,0,0,0,0,,74,0,74,74,0,74,1,74,74,Tue Dec  5 11:07:15 2023,A template containing a practice and an experimental phase,yes,언어학과심리실험_B조_기말과제용심리실험.osexp,C:\Users\caphi\Downloads,no,mono,no,18,no,black,no,no,768,psycho,71,71,0,C:\Users\caphi\Downloads\quickrun.csv,psycho,Lentiform Loewenfeld,3.3.14,no,시계,artifactual,non-word,0,None,,n,,n,None,x,0.0214000465348362,,542.2642000485212,,1116.9642000459137,0.0214000465348362,959.08880000934,2,psycho,1024,2,48000,-16,experiment,999,odd,책솜,non-word,,146308.32009995356,11894.80360003654,11894.686099956743,,11350.94549995847,5697.0813999651,11894.025000045076,,145560.7861999888,5711.467099958099,147401.81579999626,147402.30670000892,6828.887799987569,145800.7566999877,,146441.63090002257,145536.84349998366,Extended template,0,1.7956002848222852,72,yes,1024
0,0,0.0249095921315354,0.0249095921315354,white,yes,psycho,psycho,psycho,0,uniform,0,undefined,0,n,1,0,75,1,1,0,0,0,0,,75,0,75,75,0,75,1,75,75,Tue Dec  5 11:07:15 2023,A template containing a practice and an experimental phase,yes,언어학과심리실험_B조_기말과제용심리실험.osexp,C:\Users\caphi\Downloads,no,mono,no,18,no,black,no,no,768,psycho,72,72,0,C:\Users\caphi\Downloads\quickrun.csv,psycho,Lentiform Loewenfeld,3.3.14,no,해질녘,natural,same phoneme,0,None,,n,,n,None,n,0.0227999407798051,,542.2642000485212,,1116.9642000459137,0.0227999407798051,746.2093000067398,2,psycho,1024,2,48000,-16,experiment,999,odd,해마,natural,,148275.10049997363,11894.80360003654,11894.686099956743,,11350.94549995847,5697.0813999651,11894.025000045076,,147527.85830001812,5711.467099958099,149148.24550005142,149148.7530999584,6828.887799987569,147758.43919999895,,148400.47770005185,147513.09789996594,Extended template,0,1.8184002256020904,73,yes,1024
0,0,0.0248864903492299,0.0248864903492299,white,yes,psycho,psycho,psycho,0,uniform,0,undefined,0,a,1,0,76,1,1,0,0,0,0,,76,0,76,76,0,76,1,76,76,Tue Dec  5 11:07:15 2023,A template containing a practice and an experimental phase,yes,언어학과심리실험_B조_기말과제용심리실험.osexp,C:\Users\caphi\Downloads,no,mono,no,18,no,black,no,no,768,psycho,73,73,0,C:\Users\caphi\Downloads\quickrun.csv,psycho,Lentiform Loewenfeld,3.3.14,no,성적표,artifactual,same phoneme,0,None,,n,,n,None,a,0.0232000602409243,,542.2642000485212,,1116.9642000459137,0.0232000602409243,1080.251700012013,2,psycho,1024,2,48000,-16,experiment,999,odd,성냥,artifactual,,150024.8997999588,11894.80360003654,11894.686099956743,,11350.94549995847,5697.0813999651,11894.025000045076,,149277.9910999816,5711.467099958099,151232.12739999872,151232.62739996426,6828.887799987569,149508.87050002348,,150150.7605999941,149258.5957000265,Extended template,0,1.8416002858430147,74,yes,1024
0,0,0.0250413361936807,0.0250413361936807,white,yes,psycho,psycho,psycho,0,uniform,0,undefined,0,n,1,0,77,1,1,0,0,0,0,,77,0,77,77,0,77,1,77,77,Tue Dec  5 11:07:15 2023,A template containing a practice and an experimental phase,yes,언어학과심리실험_B조_기말과제용심리실험.osexp,C:\Users\caphi\Downloads,no,mono,no,18,no,black,no,no,768,psycho,74,74,0,C:\Users\caphi\Downloads\quickrun.csv,psycho,Lentiform Loewenfeld,3.3.14,no,늪,natural,similar-environmental,0,None,,n,,n,None,n,0.0364999286830425,,542.2642000485212,,1116.9642000459137,0.0364999286830425,772.1217999933288,2,psycho,1024,2,48000,-16,experiment,999,odd,악어,natural,,152091.7290999787,11894.80360003654,11894.686099956743,,11350.94549995847,5697.0813999651,11894.025000045076,,151361.1474999925,5711.467099958099,152998.3421000652,152998.91640001442,6828.887799987569,151582.70260004792,,152224.21220003162,151342.91320003103,Extended template,0,1.8781002145260568,75,yes,1024
0,0,0.0251092133112251,0.0251092133112251,white,yes,psycho,psycho,psycho,0,uniform,0,undefined,0,n,1,0,78,1,1,0,0,0,0,,78,0,78,78,0,78,1,78,78,Tue Dec  5 11:07:15 2023,A template containing a practice and an experimental phase,yes,언어학과심리실험_B조_기말과제용심리실험.osexp,C:\Users\caphi\Downloads,no,mono,no,18,no,black,no,no,768,psycho,75,75,0,C:\Users\caphi\Downloads\quickrun.csv,psycho,Lentiform Loewenfeld,3.3.14,no,숲,natural,inclusive,0,None,,n,,n,None,n,0.0301999971270561,,542.2642000485212,,1116.9642000459137,0.0301999971270561,1432.4803000781685,2,psycho,1024,2,48000,-16,experiment,999,odd,나무,natural,,153875.34709996544,11894.80360003654,11894.686099956743,,11350.94549995847,5697.0813999651,11894.025000045076,,153127.63290002476,5711.467099958099,155433.62649995834,155434.2389999656,6828.887799987569,153349.54249998555,,153999.70669997856,153108.4467000328,Extended template,0,1.9083002116531131,76,yes,1024
0,0,0.0251896132098196,0.0251896132098196,white,yes,psycho,psycho,psycho,0,uniform,0,undefined,0,n,1,0,79,1,1,0,0,0,0,,79,0,79,79,0,79,1,79,79,Tue Dec  5 11:07:15 2023,A template containing a practice and an experimental phase,yes,언어학과심리실험_B조_기말과제용심리실험.osexp,C:\Users\caphi\Downloads,no,mono,no,18,no,black,no,no,768,psycho,76,76,0,C:\Users\caphi\Downloads\quickrun.csv,psycho,Lentiform Loewenfeld,3.3.14,no,가을,natural,similar-environmental,0,None,,n,,n,None,n,0.0313000055029988,,542.2642000485212,,1116.9642000459137,0.0313000055029988,890.7785000046715,2,psycho,1024,2,48000,-16,experiment,999,odd,낙엽,natural,,156291.79299995303,11894.80360003654,11894.686099956743,,11350.94549995847,5697.0813999651,11894.025000045076,,155560.62590004876,5711.467099958099,157307.91470000986,157308.63240000326,6828.887799987569,155775.26749996468,,156415.87619995698,155543.07010001503,Extended template,0,1.939600217156112,77,yes,1024
0,0,0.0251628240594306,0.0251628240594306,white,yes,psycho,psycho,psycho,0,uniform,0,undefined,0,x,1,0,80,1,1,0,0,0,0,,80,0,80,80,0,80,1,80,80,Tue Dec  5 11:07:15 2023,A template containing a practice and an experimental phase,yes,언어학과심리실험_B조_기말과제용심리실험.osexp,C:\Users\caphi\Downloads,no,mono,no,18,no,black,no,no,768,psycho,77,77,0,C:\Users\caphi\Downloads\quickrun.csv,psycho,Lentiform Loewenfeld,3.3.14,no,사자,natural,non-word,0,None,,n,,n,None,x,0.023100059479475,,542.2642000485212,,1116.9642000459137,0.023100059479475,759.3471000436693,2,psycho,1024,2,48000,-16,experiment,999,odd,러스바이,non-word,,158200.87830000557,11894.80360003654,11894.686099956743,,11350.94549995847,5697.0813999651,11894.025000045076,,157428.060599952,5711.467099958099,159077.41749996785,159077.9597000219,6828.887799987569,157658.53270003572,,158316.90570001956,157416.16530006286,Extended template,0,1.9627002766355872,78,yes,1024
0,0,0.0252303832411011,0.0252303832411011,white,yes,psycho,psycho,psycho,0,uniform,0,undefined,0,a,1,0,81,1,1,0,0,0,0,,81,0,81,81,0,81,1,81,81,Tue Dec  5 11:07:15 2023,A template containing a practice and an experimental phase,yes,언어학과심리실험_B조_기말과제용심리실험.osexp,C:\Users\caphi\Downloads,no,mono,no,18,no,black,no,no,768,psycho,78,78,0,C:\Users\caphi\Downloads\quickrun.csv,psycho,Lentiform Loewenfeld,3.3.14,no,불,natural,similar-environmental,0,None,,n,,n,None,a,0.0304999994114041,,542.2642000485212,,1116.9642000459137,0.0304999994114041,738.277200027369,2,psycho,1024,2,48000,-16,experiment,999,odd,소화기,artifactual,,159991.2292000372,11894.80360003654,11894.686099956743,,11350.94549995847,5697.0813999651,11894.025000045076,,159237.43300000206,5711.467099958099,160847.30140003376,160847.83129999414,6828.887799987569,159467.18949999195,,160107.887799968,159190.1377000613,Extended template,0,1.9932002760469916,79,yes,1024
0,0,0.0252412530244328,0.0252412530244328,white,yes,psycho,psycho,psycho,0,uniform,0,undefined,0,n,1,0,82,1,1,0,0,0,0,,82,0,82,82,0,82,1,82,82,Tue Dec  5 11:07:15 2023,A template containing a practice and an experimental phase,yes,언어학과심리실험_B조_기말과제용심리실험.osexp,C:\Users\caphi\Downloads,no,mono,no,18,no,black,no,no,768,psycho,79,79,0,C:\Users\caphi\Downloads\quickrun.csv,psycho,Lentiform Loewenfeld,3.3.14,no,수영,artifactual,similar-environmental,0,None,,n,,n,None,n,0.0260999659076333,,542.2642000485212,,1116.9642000459137,0.0260999659076333,662.6868000021204,2,psycho,1024,2,48000,-16,experiment,999,odd,바다,natural,,161740.9058000194,11894.80360003654,11894.686099956743,,11350.94549995847,5697.0813999651,11894.025000045076,,160993.84410004131,5711.467099958099,162523.0000000447,162523.58759997878,6828.887799987569,161208.72350002173,,161859.1331000207,160960.6247000629,Extended template,0,2.0193002419546247,80,yes,1024
0,0,0.0252296320266193,0.0252296320266193,white,yes,psycho,psycho,psycho,0,uniform,0,undefined,0,a,1,0,83,1,1,0,0,0,0,,83,0,83,83,0,83,1,83,83,Tue Dec  5 11:07:15 2023,A template containing a practice and an experimental phase,yes,언어학과심리실험_B조_기말과제용심리실험.osexp,C:\Users\caphi\Downloads,no,mono,no,18,no,black,no,no,768,psycho,80,80,0,C:\Users\caphi\Downloads\quickrun.csv,psycho,Lentiform Loewenfeld,3.3.14,no,컴퓨터,artifactual,similar-environmental,0,None,,n,,n,None,a,0.0242999522015452,,542.2642000485212,,1116.9642000459137,0.0242999522015452,1051.3052000897003,2,psycho,1024,2,48000,-16,experiment,999,odd,키보드,artifactual,,163375.03870006185,11894.80360003654,11894.686099956743,,11350.94549995847,5697.0813999651,11894.025000045076,,162643.93779996317,5711.467099958099,164553.03780001125,164553.61189995892,6828.887799987569,162857.6025000075,,163500.17759995535,162630.11380005628,Extended template,0,2.04360019415617,81,yes,1024
0,0,0.0251926859363731,0.0251926859363731,white,yes,psycho,psycho,psycho,0,uniform,0,undefined,0,n,1,0,84,1,1,0,0,0,0,,84,0,84,84,0,84,1,84,84,Tue Dec  5 11:07:15 2023,A template containing a practice and an experimental phase,yes,언어학과심리실험_B조_기말과제용심리실험.osexp,C:\Users\caphi\Downloads,no,mono,no,18,no,black,no,no,768,psycho,81,81,0,C:\Users\caphi\Downloads\quickrun.csv,psycho,Lentiform Loewenfeld,3.3.14,no,새,natural,inclusive,0,None,,n,,n,None,n,0.0222000526264309,,542.2642000485212,,1116.9642000459137,0.0222000526264309,759.6977000357583,2,psycho,1024,2,48000,-16,experiment,999,odd,까치,natural,,165424.35790004674,11894.80360003654,11894.686099956743,,11350.94549995847,5697.0813999651,11894.025000045076,,164694.32530004997,5711.467099958099,166311.51949998457,166312.06629995722,6828.887799987569,164916.54540004674,,165550.55699998047,164668.59799996018,Extended template,0,2.065800246782601,82,yes,1024
0,0,0.0251578335392187,0.0251578335392187,white,yes,psycho,psycho,psycho,0,uniform,0,undefined,0,a,0,0,85,1,1,0,0,0,0,,85,0,85,85,0,85,1,85,85,Tue Dec  5 11:07:15 2023,A template containing a practice and an experimental phase,yes,언어학과심리실험_B조_기말과제용심리실험.osexp,C:\Users\caphi\Downloads,no,mono,no,18,no,black,no,no,768,psycho,82,82,0,C:\Users\caphi\Downloads\quickrun.csv,psycho,Lentiform Loewenfeld,3.3.14,no,프린터,artifactual,similar-environmental,0,None,,n,,n,None,n,0.0222999369725585,,542.2642000485212,,1116.9642000459137,0.0222999369725585,718.5303999576718,2,psycho,1024,2,48000,-16,experiment,999,odd,종이,artifactual,,167199.8362999875,11894.80360003654,11894.686099956743,,11350.94549995847,5697.0813999651,11894.025000045076,,166453.5360999871,5711.467099958099,168027.282700059,168027.83899998758,6828.887799987569,166684.9640000146,,167307.55280004814,166421.77839996293,Extended template,0,2.0881001837551594,83,yes,1024
0,0,0.0252154783257061,0.0252154783257061,white,yes,psycho,psycho,psycho,0,uniform,0,undefined,0,a,1,0,86,1,1,0,0,0,0,,86,0,86,86,0,86,1,86,86,Tue Dec  5 11:07:15 2023,A template containing a practice and an experimental phase,yes,언어학과심리실험_B조_기말과제용심리실험.osexp,C:\Users\caphi\Downloads,no,mono,no,18,no,black,no,no,768,psycho,83,83,0,C:\Users\caphi\Downloads\quickrun.csv,psycho,Lentiform Loewenfeld,3.3.14,no,모니터,artifactual,same phoneme,0,None,,n,,n,None,a,0.0299999956041574,,542.2642000485212,,1116.9642000459137,0.0299999956041574,758.085299981758,2,psycho,1024,2,48000,-16,experiment,999,odd,모터,artifactual,,168908.09719997924,11894.80360003654,11894.686099956743,,11350.94549995847,5697.0813999651,11894.025000045076,,168160.7987000607,5711.467099958099,169792.5830000313,169793.14660001546,6828.887799987569,168383.5575999692,,169033.3280999912,168135.3990000207,Extended template,0,2.118100179359317,84,yes,1024
0,0,0.0251811792087905,0.0251811792087905,white,yes,psycho,psycho,psycho,0,uniform,0,undefined,0,a,0,0,87,1,1,0,0,0,0,,87,0,87,87,0,87,1,87,87,Tue Dec  5 11:07:15 2023,A template containing a practice and an experimental phase,yes,언어학과심리실험_B조_기말과제용심리실험.osexp,C:\Users\caphi\Downloads,no,mono,no,18,no,black,no,no,768,psycho,84,84,0,C:\Users\caphi\Downloads\quickrun.csv,psycho,Lentiform Loewenfeld,3.3.14,no,모자,artifactual,no-correlation,0,None,,n,,n,None,n,0.0223000533878803,,542.2642000485212,,1116.9642000459137,0.0223000533878803,763.869300018996,2,psycho,1024,2,48000,-16,experiment,999,odd,마우스,artifactual,,170699.62530001067,11894.80360003654,11894.686099956743,,11350.94549995847,5697.0813999651,11894.025000045076,,169953.34160001948,5711.467099958099,171572.97360000666,171573.54050001595,6828.887799987569,170174.91669999436,,170807.93849995825,169919.16809999384,Extended template,0,2.140400232747197,85,yes,1024
0,0,0.0251755835813318,0.0251755835813318,white,yes,psycho,psycho,psycho,0,uniform,0,undefined,0,n,1,0,88,1,1,0,0,0,0,,88,0,88,88,0,88,1,88,88,Tue Dec  5 11:07:15 2023,A template containing a practice and an experimental phase,yes,언어학과심리실험_B조_기말과제용심리실험.osexp,C:\Users\caphi\Downloads,no,mono,no,18,no,black,no,no,768,psycho,85,85,0,C:\Users\caphi\Downloads\quickrun.csv,psycho,Lentiform Loewenfeld,3.3.14,no,물고기,natural,inclusive,0,None,,n,,n,None,n,0.0246999552473425,,542.2642000485212,,1116.9642000459137,0.0246999552473425,1365.1718000182882,2,psycho,1024,2,48000,-16,experiment,999,odd,연어,natural,,172467.01669995673,11894.80360003654,11894.686099956743,,11350.94549995847,5697.0813999651,11894.025000045076,,171711.2762000179,5711.467099958099,173957.86480000243,173958.44299998134,6828.887799987569,171942.351100035,,172591.48259996437,171683.84589999914,Extended template,0,2.16510018799454,86,yes,1024
0,0,0.0251494281143806,0.0251494281143806,white,yes,psycho,psycho,psycho,0,uniform,0,undefined,0,x,1,0,89,1,1,0,0,0,0,,89,0,89,89,0,89,1,89,89,Tue Dec  5 11:07:15 2023,A template containing a practice and an experimental phase,yes,언어학과심리실험_B조_기말과제용심리실험.osexp,C:\Users\caphi\Downloads,no,mono,no,18,no,black,no,no,768,psycho,86,86,0,C:\Users\caphi\Downloads\quickrun.csv,psycho,Lentiform Loewenfeld,3.3.14,no,절벽,natural,non-word,0,None,,n,,n,None,x,0.0229000579565763,,542.2642000485212,,1116.9642000459137,0.0229000579565763,879.5057999668643,2,psycho,1024,2,48000,-16,experiment,999,odd,물로프,non-word,,174824.28459997757,11894.80360003654,11894.686099956743,,11350.94549995847,5697.0813999651,11894.025000045076,,174094.9021000415,5711.467099958099,175837.03309996054,175837.62070001103,6828.887799987569,174316.5037999861,,174956.35500003118,174073.6066000536,Extended template,0,2.188000245951116,87,yes,1024
0,0,0.0251215930223803,0.0251215930223803,white,yes,psycho,psycho,psycho,0,uniform,0,undefined,0,n,1,0,90,1,1,0,0,0,0,,90,0,90,90,0,90,1,90,90,Tue Dec  5 11:07:15 2023,A template containing a practice and an experimental phase,yes,언어학과심리실험_B조_기말과제용심리실험.osexp,C:\Users\caphi\Downloads,no,mono,no,18,no,black,no,no,768,psycho,87,87,0,C:\Users\caphi\Downloads\quickrun.csv,psycho,Lentiform Loewenfeld,3.3.14,no,곡물,natural,inclusive,0,None,,n,,n,None,n,0.0226999400183558,,542.2642000485212,,1116.9642000459137,0.0226999400183558,723.1082000071183,2,psycho,1024,2,48000,-16,experiment,999,odd,밀,natural,,176708.27249996364,11894.80360003654,11894.686099956743,,11350.94549995847,5697.0813999651,11894.025000045076,,175967.27030002512,5711.467099958099,177557.96420003753,177558.53999999815,6828.887799987569,176191.83939998038,,176833.5928999586,175947.89049995597,Extended template,0,2.210700185969472,88,yes,1024
0,0,0.0250898903298578,0.0250898903298578,white,yes,psycho,psycho,psycho,0,uniform,0,undefined,0,n,1,0,91,1,1,0,0,0,0,,91,0,91,91,0,91,1,91,91,Tue Dec  5 11:07:15 2023,A template containing a practice and an experimental phase,yes,언어학과심리실험_B조_기말과제용심리실험.osexp,C:\Users\caphi\Downloads,no,mono,no,18,no,black,no,no,768,psycho,88,88,0,C:\Users\caphi\Downloads\quickrun.csv,psycho,Lentiform Loewenfeld,3.3.14,no,물고기,natural,no-correlation,0,None,,n,,n,None,n,0.0223000533878803,,542.2642000485212,,1116.9642000459137,0.0223000533878803,2167.941599967889,2,psycho,1024,2,48000,-16,experiment,999,odd,밤하늘,natural,,178434.2720999848,11894.80360003654,11894.686099956743,,11350.94549995847,5697.0813999651,11894.025000045076,,177677.84979997668,5711.467099958099,180727.78700001072,180728.37070003152,6828.887799987569,177908.27130002435,,178558.62010002602,177666.58019996248,Extended template,0,2.2330002393573523,89,yes,1024
0,0,0.0250822243591149,0.0250822243591149,white,yes,psycho,psycho,psycho,0,uniform,0,undefined,0,a,1,0,92,1,1,0,0,0,0,,92,0,92,92,0,92,1,92,92,Tue Dec  5 11:07:15 2023,A template containing a practice and an experimental phase,yes,언어학과심리실험_B조_기말과제용심리실험.osexp,C:\Users\caphi\Downloads,no,mono,no,18,no,black,no,no,768,psycho,89,89,0,C:\Users\caphi\Downloads\quickrun.csv,psycho,Lentiform Loewenfeld,3.3.14,no,화분,artifactual,no-correlation,0,None,,n,,n,None,a,0.0243999529629945,,542.2642000485212,,1116.9642000459137,0.0243999529629945,1755.819399957545,2,psycho,1024,2,48000,-16,experiment,999,odd,신발,artifactual,,181591.85059997253,11894.80360003654,11894.686099956743,,11350.94549995847,5697.0813999651,11894.025000045076,,180860.32760003585,5711.467099958099,183474.10610003865,183474.71670003145,6828.887799987569,181083.3267000271,,181716.8745000381,180841.5158999851,Extended template,0,2.257400192320347,90,yes,1024
0,0,0.0250604410481813,0.0250604410481813,white,yes,psycho,psycho,psycho,0,uniform,0,undefined,0,a,1,0,93,1,1,0,0,0,0,,93,0,93,93,0,93,1,93,93,Tue Dec  5 11:07:15 2023,A template containing a practice and an experimental phase,yes,언어학과심리실험_B조_기말과제용심리실험.osexp,C:\Users\caphi\Downloads,no,mono,no,18,no,black,no,no,768,psycho,90,90,0,C:\Users\caphi\Downloads\quickrun.csv,psycho,Lentiform Loewenfeld,3.3.14,no,구름,natural,same phoneme,0,None,,n,,n,None,a,0.0230999430641531,,542.2642000485212,,1116.9642000459137,0.0230999430641531,850.9220000123605,2,psycho,1024,2,48000,-16,experiment,999,odd,구두,artifactual,,184374.50340006035,11894.80360003654,11894.686099956743,,11350.94549995847,5697.0813999651,11894.025000045076,,183620.62629999127,5711.467099958099,185353.3889000537,185353.9861000609,6828.887799987569,183851.31339996587,,184501.2369999895,183585.74340003543,Extended template,0,2.2805001353845,91,yes,1024
0,0,0.0250782632856103,0.0250782632856103,white,yes,psycho,psycho,psycho,0,uniform,0,undefined,0,a,1,0,94,1,1,0,0,0,0,,94,0,94,94,0,94,1,94,94,Tue Dec  5 11:07:15 2023,A template containing a practice and an experimental phase,yes,언어학과심리실험_B조_기말과제용심리실험.osexp,C:\Users\caphi\Downloads,no,mono,no,18,no,black,no,no,768,psycho,91,91,0,C:\Users\caphi\Downloads\quickrun.csv,psycho,Lentiform Loewenfeld,3.3.14,no,악어,natural,same phoneme,0,None,,n,,n,None,a,0.0267000868916511,,542.2642000485212,,1116.9642000459137,0.0267000868916511,705.0935999723151,2,psycho,1024,2,48000,-16,experiment,999,odd,악기,artifactual,,186224.4533000048,11894.80360003654,11894.686099956743,,11350.94549995847,5697.0813999651,11894.025000045076,,185477.4406000506,5711.467099958099,187048.3698999742,187048.9841999952,6828.887799987569,185692.2095000045,,186341.93230001256,185468.1774000637,Extended template,0,2.307200222276151,92,yes,1024
0,0,0.0250387113160824,0.0250387113160824,white,yes,psycho,psycho,psycho,0,uniform,0,undefined,0,n,1,0,95,1,1,0,0,0,0,,95,0,95,95,0,95,1,95,95,Tue Dec  5 11:07:15 2023,A template containing a practice and an experimental phase,yes,언어학과심리실험_B조_기말과제용심리실험.osexp,C:\Users\caphi\Downloads,no,mono,no,18,no,black,no,no,768,psycho,92,92,0,C:\Users\caphi\Downloads\quickrun.csv,psycho,Lentiform Loewenfeld,3.3.14,no,세금,artifactual,same phoneme,0,None,,n,,n,None,n,0.0213999301195144,,542.2642000485212,,1116.9642000459137,0.0213999301195144,832.8295999672264,2,psycho,1024,2,48000,-16,experiment,999,odd,세포,natural,,187933.2203000085,11894.80360003654,11894.686099956743,,11350.94549995847,5697.0813999651,11894.025000045076,,187194.6447000373,5711.467099958099,188892.08040002268,188892.68090005495,6828.887799987569,187408.19520002697,,188057.88370000664,187181.457699975,Extended template,0,2.3286001523956656,93,yes,1024
0,0,0.025026596825015,0.025026596825015,white,yes,psycho,psycho,psycho,0,uniform,0,undefined,0,x,1,0,96,1,1,0,0,0,0,,96,0,96,96,0,96,1,96,96,Tue Dec  5 11:07:15 2023,A template containing a practice and an experimental phase,yes,언어학과심리실험_B조_기말과제용심리실험.osexp,C:\Users\caphi\Downloads,no,mono,no,18,no,black,no,no,768,psycho,93,93,0,C:\Users\caphi\Downloads\quickrun.csv,psycho,Lentiform Loewenfeld,3.3.14,no,폭풍,natural,non-word,0,None,,n,,n,None,x,0.0238999491557478,,542.2642000485212,,1116.9642000459137,0.0238999491557478,791.7557000182569,2,psycho,1024,2,48000,-16,experiment,999,odd,섬강,non-word,,189757.8956000507,11894.80360003654,11894.686099956743,,11350.94549995847,5697.0813999651,11894.025000045076,,189027.003300027,5711.467099958099,190668.2715000352,190668.93050004728,6828.887799987569,189249.83590003103,,189875.1034999732,189000.82840002145,Extended template,0,2.352500101551413,94,yes,1024
0,0,0.0250400019515501,0.0250400019515501,white,yes,psycho,psycho,psycho,0,uniform,0,undefined,0,n,1,0,97,1,1,0,0,0,0,,97,0,97,97,0,97,1,97,97,Tue Dec  5 11:07:15 2023,A template containing a practice and an experimental phase,yes,언어학과심리실험_B조_기말과제용심리실험.osexp,C:\Users\caphi\Downloads,no,mono,no,18,no,black,no,no,768,psycho,94,94,0,C:\Users\caphi\Downloads\quickrun.csv,psycho,Lentiform Loewenfeld,3.3.14,no,장슈,non-word,non-word,0,None,,n,,n,None,n,0.0263000838458538,,542.2642000485212,,1116.9642000459137,0.0263000838458538,710.628499975428,2,psycho,1024,2,48000,-16,experiment,999,odd,다람쥐,natural,,191534.25140003677,11894.80360003654,11894.686099956743,,11350.94549995847,5697.0813999651,11894.025000045076,,190794.3227000069,5711.467099958099,192353.8037999533,192354.42240000705,6828.887799987569,191008.55280004907,,191641.577100032,190784.886599984,Extended template,0,2.378800185397268,95,yes,1024
0,0,0.0250822934807123,0.0250822934807123,white,yes,psycho,psycho,psycho,0,uniform,0,undefined,0,a,1,0,98,1,1,0,0,0,0,,98,0,98,98,0,98,1,98,98,Tue Dec  5 11:07:15 2023,A template containing a practice and an experimental phase,yes,언어학과심리실험_B조_기말과제용심리실험.osexp,C:\Users\caphi\Downloads,no,mono,no,18,no,black,no,no,768,psycho,95,95,0,C:\Users\caphi\Downloads\quickrun.csv,psycho,Lentiform Loewenfeld,3.3.14,no,구름,natural,same phoneme,0,None,,n,,n,None,a,0.0290999887511134,,542.2642000485212,,1116.9642000459137,0.0290999887511134,854.5521000633016,2,psycho,1024,2,48000,-16,experiment,999,odd,구슬,artifactual,,193225.7084000157,11894.80360003654,11894.686099956743,,11350.94549995847,5697.0813999651,11894.025000045076,,192477.7943000663,5711.467099958099,194203.9553000359,194204.5908999862,6828.887799987569,192691.93750002887,,193341.8540999992,192464.0906000277,Extended template,0,2.4079001741483808,96,yes,1024
0,0,0.02506804249259,0.02506804249259,white,yes,psycho,psycho,psycho,0,uniform,0,undefined,0,n,1,0,99,1,1,0,0,0,0,,99,0,99,99,0,99,1,99,99,Tue Dec  5 11:07:15 2023,A template containing a practice and an experimental phase,yes,언어학과심리실험_B조_기말과제용심리실험.osexp,C:\Users\caphi\Downloads,no,mono,no,18,no,black,no,no,768,psycho,96,96,0,C:\Users\caphi\Downloads\quickrun.csv,psycho,Lentiform Loewenfeld,3.3.14,no,구두,artifactual,same phoneme,0,None,,n,,n,None,n,0.0236999476328492,,542.2642000485212,,1116.9642000459137,0.0236999476328492,1227.4276000680402,2,psycho,1024,2,48000,-16,experiment,999,odd,구름,natural,,195075.37229999437,11894.80360003654,11894.686099956743,,11350.94549995847,5697.0813999651,11894.025000045076,,194344.36610003468,5711.467099958099,196428.6384000443,196429.28659997412,6828.887799987569,194557.74129997008,,195200.0010999618,194326.0142999934,Extended template,0,2.43160012178123,97,yes,1024
0,0,0.0250448985975615,0.0250448985975615,white,yes,psycho,psycho,psycho,0,uniform,0,undefined,0,a,1,0,100,1,1,0,0,0,0,,100,0,100,100,0,100,1,100,100,Tue Dec  5 11:07:15 2023,A template containing a practice and an experimental phase,yes,언어학과심리실험_B조_기말과제용심리실험.osexp,C:\Users\caphi\Downloads,no,mono,no,18,no,black,no,no,768,psycho,97,97,0,C:\Users\caphi\Downloads\quickrun.csv,psycho,Lentiform Loewenfeld,3.3.14,no,꽃,natural,no-correlation,0,None,,n,,n,None,a,0.0227999407798051,,542.2642000485212,,1116.9642000459137,0.0227999407798051,802.242900012061,2,psycho,1024,2,48000,-16,experiment,999,odd,풍차,artifactual,,197325.23910002783,11894.80360003654,11894.686099956743,,11350.94549995847,5697.0813999651,11894.025000045076,,196577.3791000247,5711.467099958099,198253.67380003445,198254.3047000654,6828.887799987569,196808.6578999646,,197450.0700000208,196541.772000026,Extended template,0,2.454400062561035,98,yes,1024
0,0,0.0250222234318804,0.0250222234318804,white,yes,psycho,psycho,psycho,0,uniform,0,undefined,0,a,1,0,101,1,1,0,0,0,0,,101,0,101,101,0,101,1,101,101,Tue Dec  5 11:07:15 2023,A template containing a practice and an experimental phase,yes,언어학과심리실험_B조_기말과제용심리실험.osexp,C:\Users\caphi\Downloads,no,mono,no,18,no,black,no,no,768,psycho,98,98,0,C:\Users\caphi\Downloads\quickrun.csv,psycho,Lentiform Loewenfeld,3.3.14,no,바다,natural,same phoneme,0,None,,n,,n,None,a,0.022800057195127,,542.2642000485212,,1116.9642000459137,0.022800057195127,973.2260000891984,2,psycho,1024,2,48000,-16,experiment,999,odd,바닥,artifactual,,199108.85299998336,11894.80360003654,11894.686099956743,,11350.94549995847,5697.0813999651,11894.025000045076,,198377.14180001055,5711.467099958099,200208.50740000608,200209.13630002175,6828.887799987569,198591.3376000244,,199233.9112999616,198367.21170006783,Extended template,0,2.477200119756162,99,yes,1024
0,0,0.0250110006891191,0.0250110006891191,white,yes,psycho,psycho,psycho,0,uniform,0,undefined,0,n,1,0,102,1,1,0,0,0,0,,102,0,102,102,0,102,1,102,102,Tue Dec  5 11:07:15 2023,A template containing a practice and an experimental phase,yes,언어학과심리실험_B조_기말과제용심리실험.osexp,C:\Users\caphi\Downloads,no,mono,no,18,no,black,no,no,768,psycho,99,99,0,C:\Users\caphi\Downloads\quickrun.csv,psycho,Lentiform Loewenfeld,3.3.14,no,악어,natural,similar-environmental,0,None,,n,,n,None,n,0.0238999491557478,,542.2642000485212,,1116.9642000459137,0.0238999491557478,669.76719989907,2,psycho,1024,2,48000,-16,experiment,999,odd,늪,natural,,201091.95859998,11894.80360003654,11894.686099956743,,11350.94549995847,5697.0813999651,11894.025000045076,,200352.86980005912,5711.467099958099,201888.88910005332,201889.75119998213,6828.887799987569,200584.28429998457,,201217.85530005585,200330.24619997013,Extended template,0,2.50110006891191,100,yes,1024
0,0,0.0249831695201815,0.0249831695201815,white,yes,psycho,psycho,psycho,0,uniform,0,undefined,0,a,1,0,103,1,1,0,0,0,0,,103,0,103,103,0,103,1,103,103,Tue Dec  5 11:07:15 2023,A template containing a practice and an experimental phase,yes,언어학과심리실험_B조_기말과제용심리실험.osexp,C:\Users\caphi\Downloads,no,mono,no,18,no,black,no,no,768,psycho,100,100,0,C:\Users\caphi\Downloads\quickrun.csv,psycho,Lentiform Loewenfeld,3.3.14,no,옷,artifactual,inclusive,0,None,,n,,n,None,a,0.0222000526264309,,542.2642000485212,,1116.9642000459137,0.0222000526264309,674.533799989149,2,psycho,1024,2,48000,-16,experiment,999,odd,코트,artifactual,,202759.31480003052,11894.80360003654,11894.686099956743,,11350.94549995847,5697.0813999651,11894.025000045076,,202028.32719997969,5711.467099958099,203558.9641999686,203559.60290005896,6828.887799987569,202249.7524999781,,202883.18650005385,202008.0498000607,Extended template,0,2.523300121538341,101,yes,1024
0,0,0.0249607860585492,0.0249607860585492,white,yes,psycho,psycho,psycho,0,uniform,0,undefined,0,a,1,0,104,1,1,0,0,0,0,,104,0,104,104,0,104,1,104,104,Tue Dec  5 11:07:15 2023,A template containing a practice and an experimental phase,yes,언어학과심리실험_B조_기말과제용심리실험.osexp,C:\Users\caphi\Downloads,no,mono,no,18,no,black,no,no,768,psycho,101,101,0,C:\Users\caphi\Downloads\quickrun.csv,psycho,Lentiform Loewenfeld,3.3.14,no,전기,natural,similar-environmental,0,None,,n,,n,None,a,0.0227000564336776,,542.2642000485212,,1116.9642000459137,0.0227000564336776,625.328499940224,2,psycho,1024,2,48000,-16,experiment,999,odd,전선,artifactual,,204441.3222000003,11894.80360003654,11894.686099956743,,11350.94549995847,5697.0813999651,11894.025000045076,,203695.1571999816,5711.467099958099,205193.64700000733,205194.3110000575,6828.887799987569,203908.68550003503,,204566.98310002685,203672.06759995315,Extended template,0,2.5460001779720187,102,yes,1024
0,0,0.0249330108099192,0.0249330108099192,white,yes,psycho,psycho,psycho,0,uniform,0,undefined,0,n,1,0,105,1,1,0,0,0,0,,105,0,105,105,0,105,1,105,105,Tue Dec  5 11:07:15 2023,A template containing a practice and an experimental phase,yes,언어학과심리실험_B조_기말과제용심리실험.osexp,C:\Users\caphi\Downloads,no,mono,no,18,no,black,no,no,768,psycho,102,102,0,C:\Users\caphi\Downloads\quickrun.csv,psycho,Lentiform Loewenfeld,3.3.14,no,호수,natural,no-correlation,0,None,,n,,n,None,n,0.0220999354496598,,542.2642000485212,,1116.9642000459137,0.0220999354496598,682.5005999999121,2,psycho,1024,2,48000,-16,experiment,999,odd,소나무,natural,,206058.3766000345,11894.80360003654,11894.686099956743,,11350.94549995847,5697.0813999651,11894.025000045076,,205329.051299952,5711.467099958099,206868.1536000222,206868.8040999696,6828.887799987569,205542.57890000008,,206184.4140000176,205307.69060004968,Extended template,0,2.5681001134216785,103,yes,1024
0,0,0.0249711548139412,0.0249711548139412,white,yes,psycho,psycho,psycho,0,uniform,0,undefined,0,n,1,0,106,1,1,0,0,0,0,,106,0,106,106,0,106,1,106,106,Tue Dec  5 11:07:15 2023,A template containing a practice and an experimental phase,yes,언어학과심리실험_B조_기말과제용심리실험.osexp,C:\Users\caphi\Downloads,no,mono,no,18,no,black,no,no,768,psycho,103,103,0,C:\Users\caphi\Downloads\quickrun.csv,psycho,Lentiform Loewenfeld,3.3.14,no,얼음,natural,no-correlation,0,None,,n,,n,None,n,0.0288999872282147,,542.2642000485212,,1116.9642000459137,0.0288999872282147,653.5445000045002,2,psycho,1024,2,48000,-16,experiment,999,odd,돌,natural,,207751.51860003825,11894.80360003654,11894.686099956743,,11350.94549995847,5697.0813999651,11894.025000045076,,206993.91249998007,5711.467099958099,208514.19160002843,208514.88320005592,6828.887799987569,207226.1700000381,,207858.94089995415,206980.4602999939,Extended template,0,2.5970001006498933,104,yes,1024
