acc,accuracy,average_response_time,avg_rt,background,bidi,canvas_backend,clock_backend,color_backend,compensation,coordinates,correct,correct_instructions,correct_keyboard_response,correct_response,correct_target,count_about_this_template,count_blank,count_block_loop,count_block_sequence,count_end_of_experiment,count_end_of_practice,count_experiment,count_experimental_loop,count_feedback,count_fixation,count_instructions,count_keyboard_response,count_logger,count_practice_loop,count_prime,count_reset_feedback,count_target,count_trial_sequence,datetime,description,disable_garbage_collection,experiment_file,experiment_path,font_bold,font_family,font_italic,font_size,font_underline,foreground,form_clicks,fullscreen,height,keyboard_backend,live_row,live_row_block_loop,live_row_practice_loop,logfile,mouse_backend,opensesame_codename,opensesame_version,practice,prime,prime_condition,relation,repeat_cycle,response,response_end_of_experiment,response_end_of_practice,response_feedback,response_instructions,response_keyboard_response,response_target,response_time,response_time_end_of_experiment,response_time_end_of_practice,response_time_feedback,response_time_instructions,response_time_keyboard_response,response_time_target,round_decimals,sampler_backend,sound_buf_size,sound_channels,sound_freq,sound_sample_size,start,subject_nr,subject_parity,target,target_condition,time_about_this_template,time_blank,time_block_loop,time_block_sequence,time_end_of_experiment,time_end_of_practice,time_experiment,time_experimental_loop,time_feedback,time_fixation,time_instructions,time_keyboard_response,time_logger,time_practice_loop,time_prime,time_reset_feedback,time_target,time_trial_sequence,title,total_correct,total_response_time,total_responses,uniform_coordinates,width
0,0,0.0234999461099505,0.0234999461099505,white,yes,psycho,psycho,psycho,0,uniform,0,undefined,0,a,0,0,0,0,0,0,0,0,0,,0,0,0,0,0,0,0,0,0,Tue Dec  5 13:20:41 2023,A template containing a practice and an experimental phase,yes,언어학과심리실험_B조_기말과제용심리실험.osexp,C:\Users\caphi\Downloads,no,mono,no,18,no,black,no,no,768,psycho,0,0,0,C:\Users\caphi\Downloads\quickrun.csv,psycho,Lentiform Loewenfeld,3.3.14,yes,성냥,artifactual,same phoneme,0,None,,,,a,None,n,0.0234999461099505,,,,716.150899999775,0.0234999461099505,604.913100018166,2,psycho,1024,2,48000,-16,experiment,999,odd,성적표,artifactual,,8323.227799963206,7492.369799991138,7492.256999947131,,,6733.804299961776,,,7589.569999952801,6775.033899932168,9056.780699989758,9056.899799965322,7491.714599891566,7807.247699936852,,8451.153899892233,7555.109199951403,Extended template,0,0.0234999461099505,1,yes,1024
0,0,0.0242500100284814,0.0242500100284814,white,yes,psycho,psycho,psycho,0,uniform,0,undefined,0,n,0,0,1,0,0,0,0,0,0,,1,0,1,1,0,1,0,1,1,Tue Dec  5 13:20:41 2023,A template containing a practice and an experimental phase,yes,언어학과심리실험_B조_기말과제용심리실험.osexp,C:\Users\caphi\Downloads,no,mono,no,18,no,black,no,no,768,psycho,1,1,0,C:\Users\caphi\Downloads\quickrun.csv,psycho,Lentiform Loewenfeld,3.3.14,yes,태양계,natural,inclusive,0,None,,,,a,None,a,0.0250000739470124,,,,716.150899999775,0.0250000739470124,361.528699984774,2,psycho,1024,2,48000,-16,experiment,999,odd,목성,natural,,9923.65739995148,7492.369799991138,7492.256999947131,,,6733.804299961776,,,9189.83920000028,6775.033899932168,10402.03619992826,10402.172899921425,7491.714599891566,9406.70809999574,,10039.718499989249,9175.444699940272,Extended template,0,0.0485000200569629,2,yes,1024
0,0,0.0236333192636569,0.0236333192636569,white,yes,psycho,psycho,psycho,0,uniform,0,undefined,0,a,1,0,2,0,0,0,0,0,0,,2,0,2,2,0,2,0,2,2,Tue Dec  5 13:20:41 2023,A template containing a practice and an experimental phase,yes,언어학과심리실험_B조_기말과제용심리실험.osexp,C:\Users\caphi\Downloads,no,mono,no,18,no,black,no,no,768,psycho,2,2,0,C:\Users\caphi\Downloads\quickrun.csv,psycho,Lentiform Loewenfeld,3.3.14,yes,국가,artifactual,inclusive,0,None,,,,a,None,a,0.0223999377340078,,,,716.150899999775,0.0223999377340078,1.3827000511810184,2,psycho,1024,2,48000,-16,experiment,999,odd,대한민국,artifactual,,11273.31979991868,7492.369799991138,7492.256999947131,,,6733.804299961776,,,10526.076099951752,6775.033899932168,11402.11589995306,11402.241399977356,7491.714599891566,10767.084799939768,,11400.07449989207,10514.305699965917,Extended template,0,0.0708999577909708,3,yes,1024
0,0,0.027799978852272,0.027799978852272,white,yes,psycho,psycho,psycho,0,uniform,0,undefined,0,a,1,0,3,1,1,0,0,0,0,,3,0,3,3,0,3,1,3,3,Tue Dec  5 13:20:41 2023,A template containing a practice and an experimental phase,yes,언어학과심리실험_B조_기말과제용심리실험.osexp,C:\Users\caphi\Downloads,no,mono,no,18,no,black,no,no,768,psycho,0,0,0,C:\Users\caphi\Downloads\quickrun.csv,psycho,Lentiform Loewenfeld,3.3.14,no,구름,natural,same phoneme,0,None,,n,,a,None,a,0.027799978852272,,770.0398999731988,,716.150899999775,0.027799978852272,787.5463999807835,2,psycho,1024,2,48000,-16,experiment,999,odd,구슬,artifactual,,13139.9747999385,12330.975899938494,12330.843599978834,,11559.1618999606,6733.804299961776,12330.09399997536,,12391.609599930234,6775.033899932168,14061.754699912854,14061.894899932668,7491.714599891566,12606.429599924011,,13273.41369993519,12370.87319989223,Extended template,0,0.027799978852272,1,yes,1024
0,0,0.0246999552473425,0.0246999552473425,white,yes,psycho,psycho,psycho,0,uniform,0,undefined,0,x,1,0,4,1,1,0,0,0,0,,4,0,4,4,0,4,1,4,4,Tue Dec  5 13:20:41 2023,A template containing a practice and an experimental phase,yes,언어학과심리실험_B조_기말과제용심리실험.osexp,C:\Users\caphi\Downloads,no,mono,no,18,no,black,no,no,768,psycho,1,1,0,C:\Users\caphi\Downloads\quickrun.csv,psycho,Lentiform Loewenfeld,3.3.14,no,절벽,natural,non-word,0,None,,n,,a,None,x,0.0215999316424131,,770.0398999731988,,716.150899999775,0.0215999316424131,860.2555999532342,2,psycho,1024,2,48000,-16,experiment,999,odd,물로프,non-word,,14950.067999889145,12330.975899938494,12330.843599978834,,11559.1618999606,6733.804299961776,12330.09399997536,,14192.622299888171,6775.033899932168,15917.257099994458,15917.382199899292,7491.714599891566,14423.645499977283,,15056.361599941738,14174.815599923022,Extended template,0,0.0493999104946851,2,yes,1024
0,0,0.0238999879608551,0.0238999879608551,white,yes,psycho,psycho,psycho,0,uniform,0,undefined,0,n,1,0,5,1,1,0,0,0,0,,5,0,5,5,0,5,1,5,5,Tue Dec  5 13:20:41 2023,A template containing a practice and an experimental phase,yes,언어학과심리실험_B조_기말과제용심리실험.osexp,C:\Users\caphi\Downloads,no,mono,no,18,no,black,no,no,768,psycho,2,2,0,C:\Users\caphi\Downloads\quickrun.csv,psycho,Lentiform Loewenfeld,3.3.14,no,전등,artifactual,no-correlation,0,None,,n,,a,None,n,0.0223000533878803,,770.0398999731988,,716.150899999775,0.0223000533878803,675.3695999504998,2,psycho,1024,2,48000,-16,experiment,999,odd,소,natural,,16789.799199905246,12330.975899938494,12330.843599978834,,11559.1618999606,6733.804299961776,12330.09399997536,,16042.762199998831,6775.033899932168,17582.514999900013,17582.646299968474,7491.714599891566,16274.335799971595,,16906.473899958655,16025.472999899648,Extended template,0,0.0716999638825655,3,yes,1024
0,0,0.0248250144068151,0.0248250144068151,white,yes,psycho,psycho,psycho,0,uniform,0,undefined,0,x,1,0,6,1,1,0,0,0,0,,6,0,6,6,0,6,1,6,6,Tue Dec  5 13:20:41 2023,A template containing a practice and an experimental phase,yes,언어학과심리실험_B조_기말과제용심리실험.osexp,C:\Users\caphi\Downloads,no,mono,no,18,no,black,no,no,768,psycho,3,3,0,C:\Users\caphi\Downloads\quickrun.csv,psycho,Lentiform Loewenfeld,3.3.14,no,사자,natural,non-word,0,None,,n,,a,None,x,0.0276000937446951,,770.0398999731988,,716.150899999775,0.0276000937446951,815.6931000994518,2,psycho,1024,2,48000,-16,experiment,999,odd,러스바이,non-word,,18457.386799971573,12330.975899938494,12330.843599978834,,11559.1618999606,6733.804299961776,12330.09399997536,,17721.331299981102,6775.033899932168,19399.67919990886,19399.84749990981,7491.714599891566,17949.46309993975,,18583.17289990373,17688.395699951798,Extended template,0,0.0993000576272606,4,yes,1024
0,0,0.0245000002905726,0.0245000002905726,white,yes,psycho,psycho,psycho,0,uniform,0,undefined,0,n,1,0,7,1,1,0,0,0,0,,7,0,7,7,0,7,1,7,7,Tue Dec  5 13:20:41 2023,A template containing a practice and an experimental phase,yes,언어학과심리실험_B조_기말과제용심리실험.osexp,C:\Users\caphi\Downloads,no,mono,no,18,no,black,no,no,768,psycho,4,4,0,C:\Users\caphi\Downloads\quickrun.csv,psycho,Lentiform Loewenfeld,3.3.14,no,장슈,non-word,non-word,0,None,,n,,a,None,n,0.0231999438256025,,770.0398999731988,,716.150899999775,0.0231999438256025,1384.4847000436855,2,psycho,1024,2,48000,-16,experiment,999,odd,다람쥐,natural,,20273.191699991003,12330.975899938494,12330.843599978834,,11559.1618999606,6733.804299961776,12330.09399997536,,19527.161499951035,6775.033899932168,21776.719099958427,21776.867299922746,7491.714599891566,19740.33929989673,,20391.45449991338,19511.505299946293,Extended template,0,0.1225000014528632,5,yes,1024
0,0,0.0246999940524498,0.0246999940524498,white,yes,psycho,psycho,psycho,0,uniform,0,undefined,0,a,1,0,8,1,1,0,0,0,0,,8,0,8,8,0,8,1,8,8,Tue Dec  5 13:20:41 2023,A template containing a practice and an experimental phase,yes,언어학과심리실험_B조_기말과제용심리실험.osexp,C:\Users\caphi\Downloads,no,mono,no,18,no,black,no,no,768,psycho,5,5,0,C:\Users\caphi\Downloads\quickrun.csv,psycho,Lentiform Loewenfeld,3.3.14,no,꽃,natural,no-correlation,0,None,,n,,a,None,a,0.0256999628618359,,770.0398999731988,,716.150899999775,0.0256999628618359,716.1460999632254,2,psycho,1024,2,48000,-16,experiment,999,odd,경주,artifactual,,22656.673199962825,12330.975899938494,12330.843599978834,,11559.1618999606,6733.804299961776,12330.09399997536,,21909.730799961835,6775.033899932168,23490.08849996608,23490.270799957216,7491.714599891566,22123.53559990879,,22773.004099959508,21888.854099903256,Extended template,0,0.1481999643146991,6,yes,1024
0,0,0.0264999855841909,0.0264999855841909,white,yes,psycho,psycho,psycho,0,uniform,0,undefined,0,n,1,0,9,1,1,0,0,0,0,,9,0,9,9,0,9,1,9,9,Tue Dec  5 13:20:41 2023,A template containing a practice and an experimental phase,yes,언어학과심리실험_B조_기말과제용심리실험.osexp,C:\Users\caphi\Downloads,no,mono,no,18,no,black,no,no,768,psycho,6,6,0,C:\Users\caphi\Downloads\quickrun.csv,psycho,Lentiform Loewenfeld,3.3.14,no,호랑이,natural,same phoneme,0,None,,n,,a,None,n,0.0372999347746372,,770.0398999731988,,716.150899999775,0.0372999347746372,780.2261000033468,2,psycho,1024,2,48000,-16,experiment,999,odd,호수,natural,,24373.066199943423,12330.975899938494,12330.843599978834,,11559.1618999606,6733.804299961776,12330.09399997536,,23625.99809991661,6775.033899932168,25297.807199996896,25298.09519997798,7491.714599891566,23840.14769992791,,24516.494799987413,23607.34109999612,Extended template,0,0.1854998990893364,7,yes,1024
0,0,0.0258624932030215,0.0258624932030215,white,yes,psycho,psycho,psycho,0,uniform,0,undefined,0,a,1,0,10,1,1,0,0,0,0,,10,0,10,10,0,10,1,10,10,Tue Dec  5 13:20:41 2023,A template containing a practice and an experimental phase,yes,언어학과심리실험_B조_기말과제용심리실험.osexp,C:\Users\caphi\Downloads,no,mono,no,18,no,black,no,no,768,psycho,7,7,0,C:\Users\caphi\Downloads\quickrun.csv,psycho,Lentiform Loewenfeld,3.3.14,no,교통,artifactual,inclusive,0,None,,n,,a,None,a,0.0214000465348362,,770.0398999731988,,716.150899999775,0.0214000465348362,1018.1602999800816,2,psycho,1024,2,48000,-16,experiment,999,odd,자동차,artifactual,,26190.40629989468,12330.975899938494,12330.843599978834,,11559.1618999606,6733.804299961776,12330.09399997536,,25454.59709991701,6775.033899932168,27326.756099937484,27326.92139991559,7491.714599891566,25673.3910999028,,26307.830199948512,25417.07409999799,Extended template,0,0.2068999456241727,8,yes,1024
0,0,0.0254444441654615,0.0254444441654615,white,yes,psycho,psycho,psycho,0,uniform,0,undefined,0,n,1,0,11,1,1,0,0,0,0,,11,0,11,11,0,11,1,11,11,Tue Dec  5 13:20:41 2023,A template containing a practice and an experimental phase,yes,언어학과심리실험_B조_기말과제용심리실험.osexp,C:\Users\caphi\Downloads,no,mono,no,18,no,black,no,no,768,psycho,8,8,0,C:\Users\caphi\Downloads\quickrun.csv,psycho,Lentiform Loewenfeld,3.3.14,no,모래,natural,similar-environmental,0,None,,n,,a,None,n,0.0221000518649816,,770.0398999731988,,716.150899999775,0.0221000518649816,822.9941999306902,2,psycho,1024,2,48000,-16,experiment,999,odd,자갈,natural,,28216.0576999886,12330.975899938494,12330.843599978834,,11559.1618999606,6733.804299961776,12330.09399997536,,27459.39869992435,6775.033899932168,29157.050799927674,29157.21469989512,7491.714599891566,27690.4064998962,,28333.36789999157,27449.489699909464,Extended template,0,0.2289999974891543,9,yes,1024
0,0,0.0254799961112439,0.0254799961112439,white,yes,psycho,psycho,psycho,0,uniform,0,undefined,0,x,1,0,12,1,1,0,0,0,0,,12,0,12,12,0,12,1,12,12,Tue Dec  5 13:20:41 2023,A template containing a practice and an experimental phase,yes,언어학과심리실험_B조_기말과제용심리실험.osexp,C:\Users\caphi\Downloads,no,mono,no,18,no,black,no,no,768,psycho,9,9,0,C:\Users\caphi\Downloads\quickrun.csv,psycho,Lentiform Loewenfeld,3.3.14,no,벨트,artifactual,non-word,0,None,,n,,a,None,x,0.0257999636232852,,770.0398999731988,,716.150899999775,0.0257999636232852,841.3097000448033,2,psycho,1024,2,48000,-16,experiment,999,odd,진웬,non-word,,30023.7305999035,12330.975899938494,12330.843599978834,,11559.1618999606,6733.804299961776,12330.09399997536,,29293.13129989896,6775.033899932168,30991.79889995139,30992.00559989549,7491.714599891566,29507.1974999737,,30149.73149995785,29266.07979997061,Extended template,0,0.2547999611124396,10,yes,1024
0,0,0.0251454555175521,0.0251454555175521,white,yes,psycho,psycho,psycho,0,uniform,0,undefined,0,n,1,0,13,1,1,0,0,0,0,,13,0,13,13,0,13,1,13,13,Tue Dec  5 13:20:41 2023,A template containing a practice and an experimental phase,yes,언어학과심리실험_B조_기말과제용심리실험.osexp,C:\Users\caphi\Downloads,no,mono,no,18,no,black,no,no,768,psycho,10,10,0,C:\Users\caphi\Downloads\quickrun.csv,psycho,Lentiform Loewenfeld,3.3.14,no,전구,artifactual,similar-environmental,0,None,,n,,a,None,n,0.0218000495806336,,770.0398999731988,,716.150899999775,0.0218000495806336,1844.414499937557,2,psycho,1024,2,48000,-16,experiment,999,odd,빛,natural,,31873.64019989036,12330.975899938494,12330.843599978834,,11559.1618999606,6733.804299961776,12330.09399997536,,31126.20989989955,6775.033899932168,33851.95309994742,33852.130899904296,7491.714599891566,31357.29839990381,,32006.862899987027,31105.319699971005,Extended template,0,0.2766000106930733,11,yes,1024
0,0,0.0252749984307835,0.0252749984307835,white,yes,psycho,psycho,psycho,0,uniform,0,undefined,0,a,1,0,14,1,1,0,0,0,0,,14,0,14,14,0,14,1,14,14,Tue Dec  5 13:20:41 2023,A template containing a practice and an experimental phase,yes,언어학과심리실험_B조_기말과제용심리실험.osexp,C:\Users\caphi\Downloads,no,mono,no,18,no,black,no,no,768,psycho,11,11,0,C:\Users\caphi\Downloads\quickrun.csv,psycho,Lentiform Loewenfeld,3.3.14,no,호수,natural,no-correlation,0,None,,n,,a,None,a,0.0266999704763293,,770.0398999731988,,716.150899999775,0.0266999704763293,721.3911999715492,2,psycho,1024,2,48000,-16,experiment,999,odd,대학교,artifactual,,34723.40199991595,12330.975899938494,12330.843599978834,,11559.1618999606,6733.804299961776,12330.09399997536,,33977.35479997937,6775.033899932168,35562.25059996359,35562.465799972415,7491.714599891566,34190.14349998906,,34840.06139996927,33961.96649991907,Extended template,0,0.3032999811694026,12,yes,1024
0,0,0.0251692254096269,0.0251692254096269,white,yes,psycho,psycho,psycho,0,uniform,0,undefined,0,a,1,0,15,1,1,0,0,0,0,,15,0,15,15,0,15,1,15,15,Tue Dec  5 13:20:41 2023,A template containing a practice and an experimental phase,yes,언어학과심리실험_B조_기말과제용심리실험.osexp,C:\Users\caphi\Downloads,no,mono,no,18,no,black,no,no,768,psycho,12,12,0,C:\Users\caphi\Downloads\quickrun.csv,psycho,Lentiform Loewenfeld,3.3.14,no,가방,artifactual,no-correlation,0,None,,n,,a,None,a,0.0238999491557478,,770.0398999731988,,716.150899999775,0.0238999491557478,1053.7900999188423,2,psycho,1024,2,48000,-16,experiment,999,odd,기차,artifactual,,36457.37369998824,12330.975899938494,12330.843599978834,,11559.1618999606,6733.804299961776,12330.09399997536,,35703.062499989755,6775.033899932168,37638.04170000367,37638.2464999333,7491.714599891566,35923.5103999963,,36583.47439998761,35674.161099945195,Extended template,0,0.3271999303251505,13,yes,1024
0,0,0.0248785696125456,0.0248785696125456,white,yes,psycho,psycho,psycho,0,uniform,0,undefined,0,a,1,0,16,1,1,0,0,0,0,,16,0,16,16,0,16,1,16,16,Tue Dec  5 13:20:41 2023,A template containing a practice and an experimental phase,yes,언어학과심리실험_B조_기말과제용심리실험.osexp,C:\Users\caphi\Downloads,no,mono,no,18,no,black,no,no,768,psycho,13,13,0,C:\Users\caphi\Downloads\quickrun.csv,psycho,Lentiform Loewenfeld,3.3.14,no,종이,artifactual,similar-environmental,0,None,,n,,a,None,a,0.0211000442504882,,770.0398999731988,,716.150899999775,0.0211000442504882,715.142700006254,2,psycho,1024,2,48000,-16,experiment,999,odd,프린터,artifactual,,38539.93049997371,12330.975899938494,12330.843599978834,,11559.1618999606,6733.804299961776,12330.09399997536,,37788.16239989828,6775.033899932168,39372.76219995693,39372.94519995339,7491.714599891566,38023.74159998726,,38656.89169999678,37744.2846999038,Extended template,0,0.3482999745756387,14,yes,1024
0,0,0.0246666682263215,0.0246666682263215,white,yes,psycho,psycho,psycho,0,uniform,0,undefined,0,n,1,0,17,1,1,0,0,0,0,,17,0,17,17,0,17,1,17,17,Tue Dec  5 13:20:41 2023,A template containing a practice and an experimental phase,yes,언어학과심리실험_B조_기말과제용심리실험.osexp,C:\Users\caphi\Downloads,no,mono,no,18,no,black,no,no,768,psycho,14,14,0,C:\Users\caphi\Downloads\quickrun.csv,psycho,Lentiform Loewenfeld,3.3.14,no,우산,artifactual,similar-environmental,0,None,,n,,a,None,n,0.0217000488191843,,770.0398999731988,,716.150899999775,0.0217000488191843,692.3204000340775,2,psycho,1024,2,48000,-16,experiment,999,odd,비,natural,,40240.29949994292,12330.975899938494,12330.843599978834,,11559.1618999606,6733.804299961776,12330.09399997536,,39493.43759997282,6775.033899932168,41060.05999993067,41060.25260000024,7491.714599891566,39706.92659995984,,40367.045899969526,39480.78149999492,Extended template,0,0.3700000233948231,15,yes,1024
0,0,0.0247124989982694,0.0247124989982694,white,yes,psycho,psycho,psycho,0,uniform,0,undefined,0,n,1,0,18,1,1,0,0,0,0,,18,0,18,18,0,18,1,18,18,Tue Dec  5 13:20:41 2023,A template containing a practice and an experimental phase,yes,언어학과심리실험_B조_기말과제용심리실험.osexp,C:\Users\caphi\Downloads,no,mono,no,18,no,black,no,no,768,psycho,15,15,0,C:\Users\caphi\Downloads\quickrun.csv,psycho,Lentiform Loewenfeld,3.3.14,no,가을,natural,similar-environmental,0,None,,n,,a,None,n,0.0253999605774879,,770.0398999731988,,716.150899999775,0.0253999605774879,724.9054000712931,2,psycho,1024,2,48000,-16,experiment,999,odd,낙엽,natural,,41940.025899908505,12330.975899938494,12330.843599978834,,11559.1618999606,6733.804299961776,12330.09399997536,,41203.48839997314,6775.033899932168,42782.63499995228,42782.84729993902,7491.714599891566,41423.880099901,,42056.90909991972,41170.68469990045,Extended template,0,0.395399983972311,16,yes,1024
0,0,0.0252235297332791,0.0252235297332791,white,yes,psycho,psycho,psycho,0,uniform,0,undefined,0,a,1,0,19,1,1,0,0,0,0,,19,0,19,19,0,19,1,19,19,Tue Dec  5 13:20:41 2023,A template containing a practice and an experimental phase,yes,언어학과심리실험_B조_기말과제용심리실험.osexp,C:\Users\caphi\Downloads,no,mono,no,18,no,black,no,no,768,psycho,16,16,0,C:\Users\caphi\Downloads\quickrun.csv,psycho,Lentiform Loewenfeld,3.3.14,no,불,natural,similar-environmental,0,None,,n,,a,None,a,0.0334000214934349,,770.0398999731988,,716.150899999775,0.0334000214934349,687.7422000980005,2,psycho,1024,2,48000,-16,experiment,999,odd,소화기,artifactual,,43656.69579990208,12330.975899938494,12330.843599978834,,11559.1618999606,6733.804299961776,12330.09399997536,,42919.16979989037,6775.033899932168,44462.3464999022,44462.62759994716,7491.714599891566,43140.30319999438,,43773.76119990368,42893.98929988965,Extended template,0,0.4288000054657459,17,yes,1024
0,0,0.0250500031850404,0.0250500031850404,white,yes,psycho,psycho,psycho,0,uniform,0,undefined,0,n,1,0,20,1,1,0,0,0,0,,20,0,20,20,0,20,1,20,20,Tue Dec  5 13:20:41 2023,A template containing a practice and an experimental phase,yes,언어학과심리실험_B조_기말과제용심리실험.osexp,C:\Users\caphi\Downloads,no,mono,no,18,no,black,no,no,768,psycho,17,17,0,C:\Users\caphi\Downloads\quickrun.csv,psycho,Lentiform Loewenfeld,3.3.14,no,해질녘,natural,same phoneme,0,None,,n,,a,None,n,0.0221000518649816,,770.0398999731988,,716.150899999775,0.0221000518649816,636.1056000459939,2,psycho,1024,2,48000,-16,experiment,999,odd,해마,natural,,45367.49929992948,12330.975899938494,12330.843599978834,,11559.1618999606,6733.804299961776,12330.09399997536,,44621.52289994992,6775.033899932168,46127.452999935485,46127.66599992756,7491.714599891566,44840.100599918514,,45490.58729992248,44584.45419999771,Extended template,0,0.4509000573307276,18,yes,1024
0,0,0.025026316411401,0.025026316411401,white,yes,psycho,psycho,psycho,0,uniform,0,undefined,0,a,1,0,21,1,1,0,0,0,0,,21,0,21,21,0,21,1,21,21,Tue Dec  5 13:20:41 2023,A template containing a practice and an experimental phase,yes,언어학과심리실험_B조_기말과제용심리실험.osexp,C:\Users\caphi\Downloads,no,mono,no,18,no,black,no,no,768,psycho,18,18,0,C:\Users\caphi\Downloads\quickrun.csv,psycho,Lentiform Loewenfeld,3.3.14,no,키보드,artifactual,similar-environmental,0,None,,n,,a,None,a,0.0245999544858932,,770.0398999731988,,716.150899999775,0.0245999544858932,699.564200011082,2,psycho,1024,2,48000,-16,experiment,999,odd,컴퓨터,artifactual,,47006.699699908495,12330.975899938494,12330.843599978834,,11559.1618999606,6733.804299961776,12330.09399997536,,46270.5262999516,6775.033899932168,47833.12379999552,47833.366099977866,7491.714599891566,46490.3600999387,,47132.70909991115,46238.33819990978,Extended template,0,0.4755000118166208,19,yes,1024
0,0,0.0248700031079351,0.0248700031079351,white,yes,psycho,psycho,psycho,0,uniform,0,undefined,0,a,1,0,22,1,1,0,0,0,0,,22,0,22,22,0,22,1,22,22,Tue Dec  5 13:20:41 2023,A template containing a practice and an experimental phase,yes,언어학과심리실험_B조_기말과제용심리실험.osexp,C:\Users\caphi\Downloads,no,mono,no,18,no,black,no,no,768,psycho,19,19,0,C:\Users\caphi\Downloads\quickrun.csv,psycho,Lentiform Loewenfeld,3.3.14,no,학적,artifactual,same phoneme,0,None,,n,,a,None,a,0.0219000503420829,,770.0398999731988,,716.150899999775,0.0219000503420829,823.966299998574,2,psycho,1024,2,48000,-16,experiment,999,odd,학술,artifactual,,48773.42429989949,12330.975899938494,12330.843599978834,,11559.1618999606,6733.804299961776,12330.09399997536,,48020.69799997844,6775.033899932168,49724.68879993539,49724.92759989109,7491.714599891566,48240.323999896646,,48899.82599997893,47986.78849998396,Extended template,0,0.4974000621587038,20,yes,1024
0,0,0.0247238148447303,0.0247238148447303,white,yes,psycho,psycho,psycho,0,uniform,0,undefined,0,a,1,0,23,1,1,0,0,0,0,,23,0,23,23,0,23,1,23,23,Tue Dec  5 13:20:41 2023,A template containing a practice and an experimental phase,yes,언어학과심리실험_B조_기말과제용심리실험.osexp,C:\Users\caphi\Downloads,no,mono,no,18,no,black,no,no,768,psycho,20,20,0,C:\Users\caphi\Downloads\quickrun.csv,psycho,Lentiform Loewenfeld,3.3.14,no,컴퓨터,artifactual,similar-environmental,0,None,,n,,a,None,a,0.0218000495806336,,770.0398999731988,,716.150899999775,0.0218000495806336,1494.862399995327,2,psycho,1024,2,48000,-16,experiment,999,odd,키보드,artifactual,,50574.427599902265,12330.975899938494,12330.843599978834,,11559.1618999606,6733.804299961776,12330.09399997536,,49842.90279995184,6775.033899932168,52196.34129991755,52196.55899994541,7491.714599891566,50057.141199940816,,50700.6662999047,49827.8721999377,Extended template,0,0.5192001117393374,21,yes,1024
0,0,0.0245590979995375,0.0245590979995375,white,yes,psycho,psycho,psycho,0,uniform,0,undefined,0,a,1,0,24,1,1,0,0,0,0,,24,0,24,24,0,24,1,24,24,Tue Dec  5 13:20:41 2023,A template containing a practice and an experimental phase,yes,언어학과심리실험_B조_기말과제용심리실험.osexp,C:\Users\caphi\Downloads,no,mono,no,18,no,black,no,no,768,psycho,21,21,0,C:\Users\caphi\Downloads\quickrun.csv,psycho,Lentiform Loewenfeld,3.3.14,no,모니터,artifactual,same phoneme,0,None,,n,,a,None,a,0.0211000442504882,,770.0398999731988,,716.150899999775,0.0211000442504882,819.1269999369979,2,psycho,1024,2,48000,-16,experiment,999,odd,모터,artifactual,,53073.47779988777,12330.975899938494,12330.843599978834,,11559.1618999606,6733.804299961776,12330.09399997536,,52336.77850000095,6775.033899932168,54010.76799992006,54010.99319988862,7491.714599891566,52567.61169992387,,53190.84559998009,52306.101299938746,Extended template,0,0.5403001559898257,22,yes,1024
0,0,0.0244217428743191,0.0244217428743191,white,yes,psycho,psycho,psycho,0,uniform,0,undefined,0,a,1,0,25,1,1,0,0,0,0,,25,0,25,25,0,25,1,25,25,Tue Dec  5 13:20:41 2023,A template containing a practice and an experimental phase,yes,언어학과심리실험_B조_기말과제용심리실험.osexp,C:\Users\caphi\Downloads,no,mono,no,18,no,black,no,no,768,psycho,22,22,0,C:\Users\caphi\Downloads\quickrun.csv,psycho,Lentiform Loewenfeld,3.3.14,no,구름,natural,same phoneme,0,None,,n,,a,None,a,0.0213999301195144,,770.0398999731988,,716.150899999775,0.0213999301195144,1132.36439996399,2,psycho,1024,2,48000,-16,experiment,999,odd,구두,artifactual,,54874.0822999971,12330.975899938494,12330.843599978834,,11559.1618999606,6733.804299961776,12330.09399997536,,54143.3899999829,6775.033899932168,56123.8809999777,56124.1484999191,7491.714599891566,54357.6194999041,,54990.562699968,54119.097399991006,Extended template,0,0.5617000861093402,23,yes,1024
0,0,0.0243000055585677,0.0243000055585677,white,yes,psycho,psycho,psycho,0,uniform,0,undefined,0,a,1,0,26,1,1,0,0,0,0,,26,0,26,26,0,26,1,26,26,Tue Dec  5 13:20:41 2023,A template containing a practice and an experimental phase,yes,언어학과심리실험_B조_기말과제용심리실험.osexp,C:\Users\caphi\Downloads,no,mono,no,18,no,black,no,no,768,psycho,23,23,0,C:\Users\caphi\Downloads\quickrun.csv,psycho,Lentiform Loewenfeld,3.3.14,no,기계,artifactual,inclusive,0,None,,n,,a,None,a,0.0215000472962856,,770.0398999731988,,716.150899999775,0.0215000472962856,694.3952000001445,2,psycho,1024,2,48000,-16,experiment,999,odd,컴퓨터,artifactual,,57035.06529994775,12330.975899938494,12330.843599978834,,11559.1618999606,6733.804299961776,12330.09399997536,,56276.46639989689,6775.033899932168,57836.58379991539,57836.8199999677,7491.714599891566,56490.38289999589,,57141.41909999307,56240.69019989111,Extended template,0,0.5832001334056258,24,yes,1024
0,0,0.0241680070757865,0.0241680070757865,white,yes,psycho,psycho,psycho,0,uniform,0,undefined,0,n,1,0,27,1,1,0,0,0,0,,27,0,27,27,0,27,1,27,27,Tue Dec  5 13:20:41 2023,A template containing a practice and an experimental phase,yes,언어학과심리실험_B조_기말과제용심리실험.osexp,C:\Users\caphi\Downloads,no,mono,no,18,no,black,no,no,768,psycho,24,24,0,C:\Users\caphi\Downloads\quickrun.csv,psycho,Lentiform Loewenfeld,3.3.14,no,등산로,artifactual,similar-environmental,0,None,,n,,a,None,n,0.0210000434890389,,770.0398999731988,,716.150899999775,0.0210000434890389,627.1593999117613,2,psycho,1024,2,48000,-16,experiment,999,odd,산,natural,,58690.234799985774,12330.975899938494,12330.843599978834,,11559.1618999606,6733.804299961776,12330.09399997536,,57960.817299899645,6775.033899932168,59445.4984999029,59445.75099996291,7491.714599891566,58173.73999999836,,58817.575699999,57949.83689999208,Extended template,0,0.6042001768946648,25,yes,1024
0,0,0.024007696013611,0.024007696013611,white,yes,psycho,psycho,psycho,0,uniform,0,undefined,0,n,1,0,28,1,1,0,0,0,0,,28,0,28,28,0,28,1,28,28,Tue Dec  5 13:20:41 2023,A template containing a practice and an experimental phase,yes,언어학과심리실험_B조_기말과제용심리실험.osexp,C:\Users\caphi\Downloads,no,mono,no,18,no,black,no,no,768,psycho,25,25,0,C:\Users\caphi\Downloads\quickrun.csv,psycho,Lentiform Loewenfeld,3.3.14,no,박쥐,natural,similar-environmental,0,None,,n,,a,None,n,0.0199999194592237,,770.0398999731988,,716.150899999775,0.0199999194592237,934.0423999819905,2,psycho,1024,2,48000,-16,experiment,999,odd,동굴,natural,,60334.929999895394,12330.975899938494,12330.843599978834,,11559.1618999606,6733.804299961776,12330.09399997536,,59586.8507999694,6775.033899932168,61375.80649997108,61376.05879991315,7491.714599891566,59807.46449995786,,60440.97759993747,59555.28809991665,Extended template,0,0.6242000963538885,26,yes,1024
0,0,0.0240703725635453,0.0240703725635453,white,yes,psycho,psycho,psycho,0,uniform,0,undefined,0,a,1,0,29,1,1,0,0,0,0,,29,0,29,29,0,29,1,29,29,Tue Dec  5 13:20:41 2023,A template containing a practice and an experimental phase,yes,언어학과심리실험_B조_기말과제용심리실험.osexp,C:\Users\caphi\Downloads,no,mono,no,18,no,black,no,no,768,psycho,26,26,0,C:\Users\caphi\Downloads\quickrun.csv,psycho,Lentiform Loewenfeld,3.3.14,no,옷,artifactual,inclusive,0,None,,n,,a,None,a,0.0256999628618359,,770.0398999731988,,716.150899999775,0.0256999628618359,661.8033000268042,2,psycho,1024,2,48000,-16,experiment,999,odd,코트,artifactual,,62306.79589998908,12330.975899938494,12330.843599978834,,11559.1618999606,6733.804299961776,12330.09399997536,,61527.150099980645,6775.033899932168,63095.95869993791,63096.27659991384,7491.714599891566,61784.419199917465,,62433.24489996303,61489.001799956895,Extended template,0,0.6499000592157245,27,yes,1024
0,0,0.0239964283537119,0.0239964283537119,white,yes,psycho,psycho,psycho,0,uniform,0,undefined,0,n,1,0,30,1,1,0,0,0,0,,30,0,30,30,0,30,1,30,30,Tue Dec  5 13:20:41 2023,A template containing a practice and an experimental phase,yes,언어학과심리실험_B조_기말과제용심리실험.osexp,C:\Users\caphi\Downloads,no,mono,no,18,no,black,no,no,768,psycho,27,27,0,C:\Users\caphi\Downloads\quickrun.csv,psycho,Lentiform Loewenfeld,3.3.14,no,풍차,artifactual,no-correlation,0,None,,n,,a,None,n,0.0219999346882104,,770.0398999731988,,716.150899999775,0.0219999346882104,641.2377000087872,2,psycho,1024,2,48000,-16,experiment,999,odd,흙,natural,,63973.64549990744,12330.975899938494,12330.843599978834,,11559.1618999606,6733.804299961776,12330.09399997536,,63226.43719997723,6775.033899932168,64743.42139996588,64743.6863000039,7491.714599891566,63450.38519997616,,64101.39279998839,63207.16619992163,Extended template,0,0.671899993903935,28,yes,1024
0,0,0.0239034456297241,0.0239034456297241,white,yes,psycho,psycho,psycho,0,uniform,0,undefined,0,n,1,0,31,1,1,0,0,0,0,,31,0,31,31,0,31,1,31,31,Tue Dec  5 13:20:41 2023,A template containing a practice and an experimental phase,yes,언어학과심리실험_B조_기말과제용심리실험.osexp,C:\Users\caphi\Downloads,no,mono,no,18,no,black,no,no,768,psycho,28,28,0,C:\Users\caphi\Downloads\quickrun.csv,psycho,Lentiform Loewenfeld,3.3.14,no,바닥,artifactual,same phoneme,0,None,,n,,a,None,n,0.0212999293580651,,770.0398999731988,,716.150899999775,0.0212999293580651,700.4978000186384,2,psycho,1024,2,48000,-16,experiment,999,odd,바다,natural,,65623.38049989194,12330.975899938494,12330.843599978834,,11559.1618999606,6733.804299961776,12330.09399997536,,64885.93939994462,6775.033899932168,66443.04659997579,66443.31519992556,7491.714599891566,65118.87259990908,,65741.76249990705,64859.81409996748,Extended template,0,0.6931999232620001,29,yes,1024
0,0,0.0238833289283017,0.0238833289283017,white,yes,psycho,psycho,psycho,0,uniform,0,undefined,0,a,1,0,32,1,1,0,0,0,0,,32,0,32,32,0,32,1,32,32,Tue Dec  5 13:20:41 2023,A template containing a practice and an experimental phase,yes,언어학과심리실험_B조_기말과제용심리실험.osexp,C:\Users\caphi\Downloads,no,mono,no,18,no,black,no,no,768,psycho,29,29,0,C:\Users\caphi\Downloads\quickrun.csv,psycho,Lentiform Loewenfeld,3.3.14,no,소나무,natural,same phoneme,0,None,,n,,a,None,a,0.0232999445870518,,770.0398999731988,,716.150899999775,0.0232999445870518,830.8143999893218,2,psycho,1024,2,48000,-16,experiment,999,odd,소방서,artifactual,,67323.60899995547,12330.975899938494,12330.843599978834,,11559.1618999606,6733.804299961776,12330.09399997536,,66587.17349998187,6775.033899932168,68283.37279998232,68283.65779994056,7491.714599891566,66807.15179990511,,67451.66199991945,66553.22289990727,Extended template,0,0.716499867849052,30,yes,1024
0,0,0.023793545551598,0.023793545551598,white,yes,psycho,psycho,psycho,0,uniform,0,undefined,0,n,1,0,33,1,1,0,0,0,0,,33,0,33,33,0,33,1,33,33,Tue Dec  5 13:20:41 2023,A template containing a practice and an experimental phase,yes,언어학과심리실험_B조_기말과제용심리실험.osexp,C:\Users\caphi\Downloads,no,mono,no,18,no,black,no,no,768,psycho,30,30,0,C:\Users\caphi\Downloads\quickrun.csv,psycho,Lentiform Loewenfeld,3.3.14,no,멜블옴,non-word,non-word,0,None,,n,,a,None,n,0.0211000442504882,,770.0398999731988,,716.150899999775,0.0211000442504882,767.4082999583334,2,psycho,1024,2,48000,-16,experiment,999,odd,폭포,natural,,69173.79039991647,12330.975899938494,12330.843599978834,,11559.1618999606,6733.804299961776,12330.09399997536,,68436.75039999653,6775.033899932168,70068.03679990117,70068.3189999545,7491.714599891566,68667.44579991791,,69299.74239994772,68395.21149999928,Extended template,0,0.7375999120995402,31,yes,1024
0,0,0.0237531203310936,0.0237531203310936,white,yes,psycho,psycho,psycho,0,uniform,0,undefined,0,x,1,0,34,1,1,0,0,0,0,,34,0,34,34,0,34,1,34,34,Tue Dec  5 13:20:41 2023,A template containing a practice and an experimental phase,yes,언어학과심리실험_B조_기말과제용심리실험.osexp,C:\Users\caphi\Downloads,no,mono,no,18,no,black,no,no,768,psycho,31,31,0,C:\Users\caphi\Downloads\quickrun.csv,psycho,Lentiform Loewenfeld,3.3.14,no,시계,artifactual,non-word,0,None,,n,,a,None,x,0.0224999384954571,,770.0398999731988,,716.150899999775,0.0224999384954571,986.185499932617,2,psycho,1024,2,48000,-16,experiment,999,odd,책솜,non-word,,70940.76319993474,12330.975899938494,12330.843599978834,,11559.1618999606,6733.804299961776,12330.09399997536,,70193.31809994765,6775.033899932168,72044.41329999827,72044.70099997707,7491.714599891566,70407.6457999181,,71057.37399996724,70180.0452999305,Extended template,0,0.7600998505949974,32,yes,1024
0,0,0.0236636331079132,0.0236636331079132,white,yes,psycho,psycho,psycho,0,uniform,0,undefined,0,n,1,0,35,1,1,0,0,0,0,,35,0,35,35,0,35,1,35,35,Tue Dec  5 13:20:41 2023,A template containing a practice and an experimental phase,yes,언어학과심리실험_B조_기말과제용심리실험.osexp,C:\Users\caphi\Downloads,no,mono,no,18,no,black,no,no,768,psycho,32,32,0,C:\Users\caphi\Downloads\quickrun.csv,psycho,Lentiform Loewenfeld,3.3.14,no,곡물,natural,inclusive,0,None,,n,,a,None,n,0.0208000419661402,,770.0398999731988,,716.150899999775,0.0208000419661402,842.4042999977246,2,psycho,1024,2,48000,-16,experiment,999,odd,밀,natural,,72933.55359998532,12330.975899938494,12330.843599978834,,11559.1618999606,6733.804299961776,12330.09399997536,,72177.62769991532,6775.033899932168,73893.15599994734,73893.4450999368,7491.714599891566,72407.27129997686,,73049.95159991086,72152.13939989917,Extended template,0,0.7808998925611377,33,yes,1024
0,0,0.0237676465664716,0.0237676465664716,white,yes,psycho,psycho,psycho,0,uniform,0,undefined,0,a,1,0,36,1,1,0,0,0,0,,36,0,36,36,0,36,1,36,36,Tue Dec  5 13:20:41 2023,A template containing a practice and an experimental phase,yes,언어학과심리실험_B조_기말과제용심리실험.osexp,C:\Users\caphi\Downloads,no,mono,no,18,no,black,no,no,768,psycho,33,33,0,C:\Users\caphi\Downloads\quickrun.csv,psycho,Lentiform Loewenfeld,3.3.14,no,바다,natural,same phoneme,0,None,,n,,a,None,a,0.0272000906988978,,770.0398999731988,,716.150899999775,0.0272000906988978,957.3455000063404,2,psycho,1024,2,48000,-16,experiment,999,odd,바구니,artifactual,,74758.10300000012,12330.975899938494,12330.843599978834,,11559.1618999606,6733.804299961776,12330.09399997536,,74026.7910999246,6775.033899932168,75833.47979991231,75833.85249995627,7491.714599891566,74240.85989990272,,74875.08869997691,74008.61079990864,Extended template,0,0.8080999832600355,34,yes,1024
0,0,0.0249114286686692,0.0249114286686692,white,yes,psycho,psycho,psycho,0,uniform,0,undefined,0,n,1,0,37,1,1,0,0,0,0,,37,0,37,37,0,37,1,37,37,Tue Dec  5 13:20:41 2023,A template containing a practice and an experimental phase,yes,언어학과심리실험_B조_기말과제용심리실험.osexp,C:\Users\caphi\Downloads,no,mono,no,18,no,black,no,no,768,psycho,34,34,0,C:\Users\caphi\Downloads\quickrun.csv,psycho,Lentiform Loewenfeld,3.3.14,no,의자,artifactual,no-correlation,0,None,,n,,a,None,n,0.0638000201433897,,770.0398999731988,,716.150899999775,0.0638000201433897,922.2784000448884,2,psycho,1024,2,48000,-16,experiment,999,odd,행성,natural,,76716.39129996765,12330.975899938494,12330.843599978834,,11559.1618999606,6733.804299961776,12330.09399997536,,75976.63769999053,6775.033899932168,77757.18029995915,77757.53799988888,7491.714599891566,76190.64199994318,,76833.81629991345,75952.8333999915,Extended template,0,0.8719000034034252,35,yes,1024
0,0,0.0248472238632126,0.0248472238632126,white,yes,psycho,psycho,psycho,0,uniform,0,undefined,0,a,1,0,38,1,1,0,0,0,0,,38,0,38,38,0,38,1,38,38,Tue Dec  5 13:20:41 2023,A template containing a practice and an experimental phase,yes,언어학과심리실험_B조_기말과제용심리실험.osexp,C:\Users\caphi\Downloads,no,mono,no,18,no,black,no,no,768,psycho,35,35,0,C:\Users\caphi\Downloads\quickrun.csv,psycho,Lentiform Loewenfeld,3.3.14,no,눈,natural,similar-environmental,0,None,,n,,a,None,a,0.0226000556722283,,770.0398999731988,,716.150899999775,0.0226000556722283,608.45150006935,2,psycho,1024,2,48000,-16,experiment,999,odd,스키,artifactual,,78608.4626999218,12330.975899938494,12330.843599978834,,11559.1618999606,6733.804299961776,12330.09399997536,,77876.94789993111,6775.033899932168,79334.1382999206,79334.43839999381,7491.714599891566,78091.59460000228,,78724.69869989436,77860.5681998888,Extended template,0,0.8945000590756536,36,yes,1024
0,0,0.0247405401456194,0.0247405401456194,white,yes,psycho,psycho,psycho,0,uniform,0,undefined,0,a,1,0,39,1,1,0,0,0,0,,39,0,39,39,0,39,1,39,39,Tue Dec  5 13:20:41 2023,A template containing a practice and an experimental phase,yes,언어학과심리실험_B조_기말과제용심리실험.osexp,C:\Users\caphi\Downloads,no,mono,no,18,no,black,no,no,768,psycho,36,36,0,C:\Users\caphi\Downloads\quickrun.csv,psycho,Lentiform Loewenfeld,3.3.14,no,경주,artifactual,no-correlation,0,None,,n,,a,None,a,0.0208999263122677,,770.0398999731988,,716.150899999775,0.0208999263122677,1059.8654999630526,2,psycho,1024,2,48000,-16,experiment,999,odd,버스,artifactual,,80200.82039991394,12330.975899938494,12330.843599978834,,11559.1618999606,6733.804299961776,12330.09399997536,,79460.98119998351,6775.033899932168,81368.11979999766,81368.41599992476,7491.714599891566,79674.61259989068,,80307.30749992654,79450.80479991157,Extended template,0,0.9153999853879212,37,yes,1024
0,0,0.0248894732641546,0.0248894732641546,white,yes,psycho,psycho,psycho,0,uniform,0,undefined,0,a,1,0,40,1,1,0,0,0,0,,40,0,40,40,0,40,1,40,40,Tue Dec  5 13:20:41 2023,A template containing a practice and an experimental phase,yes,언어학과심리실험_B조_기말과제용심리실험.osexp,C:\Users\caphi\Downloads,no,mono,no,18,no,black,no,no,768,psycho,37,37,0,C:\Users\caphi\Downloads\quickrun.csv,psycho,Lentiform Loewenfeld,3.3.14,no,산,natural,similar-environmental,0,None,,n,,a,None,a,0.0303999986499547,,770.0398999731988,,716.150899999775,0.0303999986499547,777.3266999283805,2,psycho,1024,2,48000,-16,experiment,999,odd,오두막,artifactual,,82267.15039997362,12330.975899938494,12330.843599978834,,11559.1618999606,6733.804299961776,12330.09399997536,,81521.67929999996,6775.033899932168,83153.17039994989,83153.5141998902,7491.714599891566,81741.60859989934,,82375.00040000305,81478.23589993641,Extended template,0,0.945799984037876,38,yes,1024
0,0,0.0249307710104263,0.0249307710104263,white,yes,psycho,psycho,psycho,0,uniform,0,undefined,0,a,1,0,41,1,1,0,0,0,0,,41,0,41,41,0,41,1,41,41,Tue Dec  5 13:20:41 2023,A template containing a practice and an experimental phase,yes,언어학과심리실험_B조_기말과제용심리실험.osexp,C:\Users\caphi\Downloads,no,mono,no,18,no,black,no,no,768,psycho,38,38,0,C:\Users\caphi\Downloads\quickrun.csv,psycho,Lentiform Loewenfeld,3.3.14,no,계곡,natural,no-correlation,0,None,,n,,a,None,a,0.0265000853687524,,770.0398999731988,,716.150899999775,0.0265000853687524,695.9371999837458,2,psycho,1024,2,48000,-16,experiment,999,odd,화장실,artifactual,,84040.90639995411,12330.975899938494,12330.843599978834,,11559.1618999606,6733.804299961776,12330.09399997536,,83287.37159993034,6775.033899932168,84854.15009991266,84854.51340000145,7491.714599891566,83518.3182999026,,84157.14389993809,83264.89259989467,Extended template,0,0.9723000694066286,39,yes,1024
0,0,0.024922500597313,0.024922500597313,white,yes,psycho,psycho,psycho,0,uniform,0,undefined,0,a,1,0,42,1,1,0,0,0,0,,42,0,42,42,0,42,1,42,42,Tue Dec  5 13:20:41 2023,A template containing a practice and an experimental phase,yes,언어학과심리실험_B조_기말과제용심리실험.osexp,C:\Users\caphi\Downloads,no,mono,no,18,no,black,no,no,768,psycho,39,39,0,C:\Users\caphi\Downloads\quickrun.csv,psycho,Lentiform Loewenfeld,3.3.14,no,안음풍,non-word,non-word,0,None,,n,,a,None,a,0.0245999544858932,,770.0398999731988,,716.150899999775,0.0245999544858932,805.9252999955788,2,psycho,1024,2,48000,-16,experiment,999,odd,의자,artifactual,,85741.20679998305,12330.975899938494,12330.843599978834,,11559.1618999606,6733.804299961776,12330.09399997536,,85013.25649989303,6775.033899932168,86673.75580000225,86674.09649991896,7491.714599891566,85224.31349998806,,85866.90959997941,84965.65849997569,Extended template,0,0.996900023892522,40,yes,1024
0,0,0.0250853666263382,0.0250853666263382,white,yes,psycho,psycho,psycho,0,uniform,0,undefined,0,a,1,0,43,1,1,0,0,0,0,,43,0,43,43,0,43,1,43,43,Tue Dec  5 13:20:41 2023,A template containing a practice and an experimental phase,yes,언어학과심리실험_B조_기말과제용심리실험.osexp,C:\Users\caphi\Downloads,no,mono,no,18,no,black,no,no,768,psycho,40,40,0,C:\Users\caphi\Downloads\quickrun.csv,psycho,Lentiform Loewenfeld,3.3.14,no,로봇,artifactual,same phoneme,0,None,,n,,a,None,a,0.0316000077873468,,770.0398999731988,,716.150899999775,0.0316000077873468,665.0042000692338,2,psycho,1024,2,48000,-16,experiment,999,odd,로켓,artifactual,,87549.69229991548,12330.975899938494,12330.843599978834,,11559.1618999606,6733.804299961776,12330.09399997536,,86793.69969991967,6775.033899932168,88323.85829999112,88324.20019991696,7491.714599891566,87032.48840000015,,87657.8576999018,86784.8687999649,Extended template,0,1.0285000316798687,41,yes,1024
0,0,0.0250523804598266,0.0250523804598266,white,yes,psycho,psycho,psycho,0,uniform,0,undefined,0,n,1,0,44,1,1,0,0,0,0,,44,0,44,44,0,44,1,44,44,Tue Dec  5 13:20:41 2023,A template containing a practice and an experimental phase,yes,언어학과심리실험_B조_기말과제용심리실험.osexp,C:\Users\caphi\Downloads,no,mono,no,18,no,black,no,no,768,psycho,41,41,0,C:\Users\caphi\Downloads\quickrun.csv,psycho,Lentiform Loewenfeld,3.3.14,no,산,natural,similar-environmental,0,None,,n,,a,None,n,0.0236999476328492,,770.0398999731988,,716.150899999775,0.0236999476328492,1003.3916999818756,2,psycho,1024,2,48000,-16,experiment,999,odd,계곡,natural,,89182.98899999354,12330.975899938494,12330.843599978834,,11559.1618999606,6733.804299961776,12330.09399997536,,88444.4917999208,6775.033899932168,90294.92799995931,90295.29169993477,7491.714599891566,88657.24509989377,,89290.61719996389,88428.43039997388,Extended template,0,1.052199979312718,42,yes,1024
0,0,0.024962791263364,0.024962791263364,white,yes,psycho,psycho,psycho,0,uniform,0,undefined,0,a,1,0,45,1,1,0,0,0,0,,45,0,45,45,0,45,1,45,45,Tue Dec  5 13:20:41 2023,A template containing a practice and an experimental phase,yes,언어학과심리실험_B조_기말과제용심리실험.osexp,C:\Users\caphi\Downloads,no,mono,no,18,no,black,no,no,768,psycho,42,42,0,C:\Users\caphi\Downloads\quickrun.csv,psycho,Lentiform Loewenfeld,3.3.14,no,피자,artifactual,similar-environmental,0,None,,n,,a,None,a,0.0212000450119376,,770.0398999731988,,716.150899999775,0.0212000450119376,1801.5282000415027,2,psycho,1024,2,48000,-16,experiment,999,odd,파스타,artifactual,,91201.13179995678,12330.975899938494,12330.843599978834,,11559.1618999606,6733.804299961776,12330.09399997536,,90427.3167999927,6775.033899932168,93109.66819990426,93109.99989998528,7491.714599891566,90657.63239993248,,91307.1815998992,90408.21229992434,Extended template,0,1.0734000243246555,43,yes,1024
0,0,0.0248681833247908,0.0248681833247908,white,yes,psycho,psycho,psycho,0,uniform,0,undefined,0,a,1,0,46,1,1,0,0,0,0,,46,0,46,46,0,46,1,46,46,Tue Dec  5 13:20:41 2023,A template containing a practice and an experimental phase,yes,언어학과심리실험_B조_기말과제용심리실험.osexp,C:\Users\caphi\Downloads,no,mono,no,18,no,black,no,no,768,psycho,43,43,0,C:\Users\caphi\Downloads\quickrun.csv,psycho,Lentiform Loewenfeld,3.3.14,no,향수,artifactual,no-correlation,0,None,,n,,a,None,a,0.0208000419661402,,770.0398999731988,,716.150899999775,0.0208000419661402,663.5463999118656,2,psycho,1024,2,48000,-16,experiment,999,odd,선풍기,artifactual,,94018.30679993144,12330.975899938494,12330.843599978834,,11559.1618999606,6733.804299961776,12330.09399997536,,93244.26579999272,6775.033899932168,94788.82319992408,94789.16419995949,7491.714599891566,93474.17109995148,,94124.2175999796,93222.835799912,Extended template,0,1.0942000662907958,44,yes,1024
0,0,0.0248177804880672,0.0248177804880672,white,yes,psycho,psycho,psycho,0,uniform,0,undefined,0,a,1,0,47,1,1,0,0,0,0,,47,0,47,47,0,47,1,47,47,Tue Dec  5 13:20:41 2023,A template containing a practice and an experimental phase,yes,언어학과심리실험_B조_기말과제용심리실험.osexp,C:\Users\caphi\Downloads,no,mono,no,18,no,black,no,no,768,psycho,44,44,0,C:\Users\caphi\Downloads\quickrun.csv,psycho,Lentiform Loewenfeld,3.3.14,no,프린터,artifactual,similar-environmental,0,None,,n,,a,None,a,0.0226000556722283,,770.0398999731988,,716.150899999775,0.0226000556722283,811.3030000822619,2,psycho,1024,2,48000,-16,experiment,999,odd,종이,artifactual,,95657.26299991366,12330.975899938494,12330.843599978834,,11559.1618999606,6733.804299961776,12330.09399997536,,94926.72899994068,6775.033899932168,96586.9050999172,96587.26129995192,7491.714599891566,95141.46419998724,,95774.64919991326,94900.55949997624,Extended template,0,1.116800121963024,45,yes,1024
0,0,0.0247413079942698,0.0247413079942698,white,yes,psycho,psycho,psycho,0,uniform,0,undefined,0,n,1,0,48,1,1,0,0,0,0,,48,0,48,48,0,48,1,48,48,Tue Dec  5 13:20:41 2023,A template containing a practice and an experimental phase,yes,언어학과심리실험_B조_기말과제용심리실험.osexp,C:\Users\caphi\Downloads,no,mono,no,18,no,black,no,no,768,psycho,45,45,0,C:\Users\caphi\Downloads\quickrun.csv,psycho,Lentiform Loewenfeld,3.3.14,no,구두,artifactual,same phoneme,0,None,,n,,a,None,n,0.0213000457733869,,770.0398999731988,,716.150899999775,0.0213000457733869,635.6769000412896,2,psycho,1024,2,48000,-16,experiment,999,odd,구름,natural,,97457.93829998,12330.975899938494,12330.843599978834,,11559.1618999606,6733.804299961776,12330.09399997536,,96720.1488999417,6775.033899932168,98211.8279999122,98212.1757999994,7491.714599891566,96941.38879992532,,97575.23899991064,96698.95709992852,Extended template,0,1.138100167736411,46,yes,1024
0,0,0.0247680904105939,0.0247680904105939,white,yes,psycho,psycho,psycho,0,uniform,0,undefined,0,a,1,0,49,1,1,0,0,0,0,,49,0,49,49,0,49,1,49,49,Tue Dec  5 13:20:41 2023,A template containing a practice and an experimental phase,yes,언어학과심리실험_B조_기말과제용심리실험.osexp,C:\Users\caphi\Downloads,no,mono,no,18,no,black,no,no,768,psycho,46,46,0,C:\Users\caphi\Downloads\quickrun.csv,psycho,Lentiform Loewenfeld,3.3.14,no,성냥,artifactual,same phoneme,0,None,,n,,a,None,a,0.0260000815615057,,770.0398999731988,,716.150899999775,0.0260000815615057,780.8715000282973,2,psycho,1024,2,48000,-16,experiment,999,odd,성적표,artifactual,,99075.54499991238,12330.975899938494,12330.843599978834,,11559.1618999606,6733.804299961776,12330.09399997536,,98344.58769997582,6775.033899932168,99989.5155999111,99989.92510000244,7491.714599891566,98558.11009998432,,99207.55289995576,98319.33609989936,Extended template,0,1.164100249297917,47,yes,1024
0,0,0.024979172546106,0.024979172546106,white,yes,psycho,psycho,psycho,0,uniform,0,undefined,0,a,1,0,50,1,1,0,0,0,0,,50,0,50,50,0,50,1,50,50,Tue Dec  5 13:20:41 2023,A template containing a practice and an experimental phase,yes,언어학과심리실험_B조_기말과제용심리실험.osexp,C:\Users\caphi\Downloads,no,mono,no,18,no,black,no,no,768,psycho,47,47,0,C:\Users\caphi\Downloads\quickrun.csv,psycho,Lentiform Loewenfeld,3.3.14,no,화분,artifactual,no-correlation,0,None,,n,,a,None,a,0.0349000329151749,,770.0398999731988,,716.150899999775,0.0349000329151749,728.8050999632105,2,psycho,1024,2,48000,-16,experiment,999,odd,신발,artifactual,,100891.51929994114,12330.975899938494,12330.843599978834,,11559.1618999606,6733.804299961776,12330.09399997536,,100153.23229995556,6775.033899932168,101764.38909990247,101764.87429998817,7491.714599891566,100374.5541999815,,101034.5140999416,100108.90479991212,Extended template,0,1.199000282213092,48,yes,1024
0,0,0.0249061291581209,0.0249061291581209,white,yes,psycho,psycho,psycho,0,uniform,0,undefined,0,a,1,0,51,1,1,0,0,0,0,,51,0,51,51,0,51,1,51,51,Tue Dec  5 13:20:41 2023,A template containing a practice and an experimental phase,yes,언어학과심리실험_B조_기말과제용심리실험.osexp,C:\Users\caphi\Downloads,no,mono,no,18,no,black,no,no,768,psycho,48,48,0,C:\Users\caphi\Downloads\quickrun.csv,psycho,Lentiform Loewenfeld,3.3.14,no,마우스,artifactual,no-correlation,0,None,,n,,a,None,a,0.0214000465348362,,770.0398999731988,,716.150899999775,0.0214000465348362,746.1284999735653,2,psycho,1024,2,48000,-16,experiment,999,odd,모자,artifactual,,102640.59989992528,12330.975899938494,12330.843599978834,,11559.1618999606,6733.804299961776,12330.09399997536,,101893.90959998129,6775.033899932168,103513.79859994633,103514.1680999659,7491.714599891566,102117.52089997754,,102766.674399958,101872.75179999416,Extended template,0,1.220400328747928,49,yes,1024
0,0,0.0248300074599683,0.0248300074599683,white,yes,psycho,psycho,psycho,0,uniform,0,undefined,0,a,1,0,52,1,1,0,0,0,0,,52,0,52,52,0,52,1,52,52,Tue Dec  5 13:20:41 2023,A template containing a practice and an experimental phase,yes,언어학과심리실험_B조_기말과제용심리실험.osexp,C:\Users\caphi\Downloads,no,mono,no,18,no,black,no,no,768,psycho,49,49,0,C:\Users\caphi\Downloads\quickrun.csv,psycho,Lentiform Loewenfeld,3.3.14,no,과일,natural,no-correlation,0,None,,n,,a,None,a,0.0211000442504882,,770.0398999731988,,716.150899999775,0.0211000442504882,629.4095000484958,2,psycho,1024,2,48000,-16,experiment,999,odd,가방,artifactual,,104408.25339988804,12330.975899938494,12330.843599978834,,11559.1618999606,6733.804299961776,12330.09399997536,,103652.7048998978,6775.033899932168,105163.98719989228,105164.3656999804,7491.714599891566,103884.56849998327,,104533.56699994764,103625.68029994144,Extended template,0,1.2415003729984164,50,yes,1024
0,0,0.0247647141234255,0.0247647141234255,white,yes,psycho,psycho,psycho,0,uniform,0,undefined,0,n,1,0,53,1,1,0,0,0,0,,53,0,53,53,0,53,1,53,53,Tue Dec  5 13:20:41 2023,A template containing a practice and an experimental phase,yes,언어학과심리실험_B조_기말과제용심리실험.osexp,C:\Users\caphi\Downloads,no,mono,no,18,no,black,no,no,768,psycho,50,50,0,C:\Users\caphi\Downloads\quickrun.csv,psycho,Lentiform Loewenfeld,3.3.14,no,호수,natural,same phoneme,0,None,,n,,a,None,n,0.0215000472962856,,770.0398999731988,,716.150899999775,0.0215000472962856,674.3735999334604,2,psycho,1024,2,48000,-16,experiment,999,odd,호랑이,natural,,106041.5627999464,12330.975899938494,12330.843599978834,,11559.1618999606,6733.804299961776,12330.09399997536,,105311.2399999518,6775.033899932168,106844.24589993432,106844.62459990756,7491.714599891566,105533.59229990748,,106168.93569997046,105281.23689990024,Extended template,0,1.263000420294702,51,yes,1024
0,0,0.0247384708088177,0.0247384708088177,white,yes,psycho,psycho,psycho,0,uniform,0,undefined,0,n,0,0,54,1,1,0,0,0,0,,54,0,54,54,0,54,1,54,54,Tue Dec  5 13:20:41 2023,A template containing a practice and an experimental phase,yes,언어학과심리실험_B조_기말과제용심리실험.osexp,C:\Users\caphi\Downloads,no,mono,no,18,no,black,no,no,768,psycho,51,51,0,C:\Users\caphi\Downloads\quickrun.csv,psycho,Lentiform Loewenfeld,3.3.14,no,바다,natural,same phoneme,0,None,,n,,a,None,x,0.023400061763823,,770.0398999731988,,716.150899999775,0.023400061763823,825.3093999810517,2,psycho,1024,2,48000,-16,experiment,999,odd,바퀴벌레,natural,,107724.1394999437,12330.975899938494,12330.843599978834,,11559.1618999606,6733.804299961776,12330.09399997536,,106976.65539989248,6775.033899932168,108684.127699933,108684.51239995191,7491.714599891566,107207.8619999811,,107857.86150000058,106957.43969990872,Extended template,0,1.286400482058525,52,yes,1024
0,0,0.0247773670433264,0.0247773670433264,white,yes,psycho,psycho,psycho,0,uniform,0,undefined,0,n,1,0,55,1,1,0,0,0,0,,55,0,55,55,0,55,1,55,55,Tue Dec  5 13:20:41 2023,A template containing a practice and an experimental phase,yes,언어학과심리실험_B조_기말과제용심리실험.osexp,C:\Users\caphi\Downloads,no,mono,no,18,no,black,no,no,768,psycho,52,52,0,C:\Users\caphi\Downloads\quickrun.csv,psycho,Lentiform Loewenfeld,3.3.14,no,대학교,artifactual,no-correlation,0,None,,n,,a,None,n,0.0267999712377786,,770.0398999731988,,716.150899999775,0.0267999712377786,750.0740999821573,2,psycho,1024,2,48000,-16,experiment,999,odd,계곡,natural,,109558.43409989028,12330.975899938494,12330.843599978834,,11559.1618999606,6733.804299961776,12330.09399997536,,108810.48959994224,6775.033899932168,110435.03009993584,110435.4306999594,7491.714599891566,109041.82289994787,,109683.864899911,108792.11109993048,Extended template,0,1.3132004532963035,53,yes,1024
0,0,0.0247000091433249,0.0247000091433249,white,yes,psycho,psycho,psycho,0,uniform,0,undefined,0,a,1,0,56,1,1,0,0,0,0,,56,0,56,56,0,56,1,56,56,Tue Dec  5 13:20:41 2023,A template containing a practice and an experimental phase,yes,언어학과심리실험_B조_기말과제용심리실험.osexp,C:\Users\caphi\Downloads,no,mono,no,18,no,black,no,no,768,psycho,53,53,0,C:\Users\caphi\Downloads\quickrun.csv,psycho,Lentiform Loewenfeld,3.3.14,no,국가,artifactual,inclusive,0,None,,n,,a,None,a,0.0206000404432415,,770.0398999731988,,716.150899999775,0.0206000404432415,885.4631999274716,2,psycho,1024,2,48000,-16,experiment,999,odd,대한민국,artifactual,,111307.58479994256,12330.975899938494,12330.843599978834,,11559.1618999606,6733.804299961776,12330.09399997536,,110578.26429989656,6775.033899932168,112319.6917999303,112320.08509989828,7491.714599891566,110800.69939990062,,111433.21829999331,110548.55039995164,Extended template,0,1.3338004937395451,54,yes,1024
0,0,0.0246654624458063,0.0246654624458063,white,yes,psycho,psycho,psycho,0,uniform,0,undefined,0,a,1,0,57,1,1,0,0,0,0,,57,0,57,57,0,57,1,57,57,Tue Dec  5 13:20:41 2023,A template containing a practice and an experimental phase,yes,언어학과심리실험_B조_기말과제용심리실험.osexp,C:\Users\caphi\Downloads,no,mono,no,18,no,black,no,no,768,psycho,54,54,0,C:\Users\caphi\Downloads\quickrun.csv,psycho,Lentiform Loewenfeld,3.3.14,no,전기,natural,similar-environmental,0,None,,n,,a,None,a,0.0227999407798051,,770.0398999731988,,716.150899999775,0.0227999407798051,765.0475000264123,2,psycho,1024,2,48000,-16,experiment,999,odd,전선,artifactual,,113191.72309990972,12330.975899938494,12330.843599978834,,11559.1618999606,6733.804299961776,12330.09399997536,,112444.19099995866,6775.033899932168,114074.67979996,114075.09800000116,7491.714599891566,112674.4231999619,,113308.5807999596,112428.82969998756,Extended template,0,1.3566004345193503,55,yes,1024
0,0,0.0246464374608227,0.0246464374608227,white,yes,psycho,psycho,psycho,0,uniform,0,undefined,0,n,0,0,58,1,1,0,0,0,0,,58,0,58,58,0,58,1,58,58,Tue Dec  5 13:20:41 2023,A template containing a practice and an experimental phase,yes,언어학과심리실험_B조_기말과제용심리실험.osexp,C:\Users\caphi\Downloads,no,mono,no,18,no,black,no,no,768,psycho,55,55,0,C:\Users\caphi\Downloads\quickrun.csv,psycho,Lentiform Loewenfeld,3.3.14,no,달,artifactual,same phoneme,0,None,,n,,a,None,a,0.0236000632867217,,770.0398999731988,,716.150899999775,0.0236000632867217,938.7299000518396,2,psycho,1024,2,48000,-16,experiment,999,odd,달력,natural,,114957.4591999408,12330.975899938494,12330.843599978834,,11559.1618999606,6733.804299961776,12330.09399997536,,114220.46389989556,6775.033899932168,116015.33909991848,116015.76260000002,7491.714599891566,114451.67319988832,,115075.14499989338,114185.98299997392,Extended template,0,1.3802004978060722,56,yes,1024
0,0,0.0247438683321601,0.0247438683321601,white,yes,psycho,psycho,psycho,0,uniform,0,undefined,0,a,1,0,59,1,1,0,0,0,0,,59,0,59,59,0,59,1,59,59,Tue Dec  5 13:20:41 2023,A template containing a practice and an experimental phase,yes,언어학과심리실험_B조_기말과제용심리실험.osexp,C:\Users\caphi\Downloads,no,mono,no,18,no,black,no,no,768,psycho,56,56,0,C:\Users\caphi\Downloads\quickrun.csv,psycho,Lentiform Loewenfeld,3.3.14,no,해변,natural,similar-environmental,0,None,,n,,a,None,a,0.0301999971270561,,770.0398999731988,,716.150899999775,0.0301999971270561,1350.793999969028,2,psycho,1024,2,48000,-16,experiment,999,odd,파라솔,artifactual,,116893.37799989153,12330.975899938494,12330.843599978834,,11559.1618999606,6733.804299961776,12330.09399997536,,116143.79479992203,6775.033899932168,118374.18779998552,118374.94439992588,7491.714599891566,116383.14809999429,,117017.61879993136,116123.58859996311,Extended template,0,1.4104004949331284,57,yes,1024
0,0,0.0246896625271645,0.0246896625271645,white,yes,psycho,psycho,psycho,0,uniform,0,undefined,0,a,1,0,60,1,1,0,0,0,0,,60,0,60,60,0,60,1,60,60,Tue Dec  5 13:20:41 2023,A template containing a practice and an experimental phase,yes,언어학과심리실험_B조_기말과제용심리실험.osexp,C:\Users\caphi\Downloads,no,mono,no,18,no,black,no,no,768,psycho,57,57,0,C:\Users\caphi\Downloads\quickrun.csv,psycho,Lentiform Loewenfeld,3.3.14,no,호수,natural,no-correlation,0,None,,n,,a,None,a,0.0215999316424131,,770.0398999731988,,716.150899999775,0.0215999316424131,990.0533999316394,2,psycho,1024,2,48000,-16,experiment,999,odd,화장실,artifactual,,119241.1188998958,12330.975899938494,12330.843599978834,,11559.1618999606,6733.804299961776,12330.09399997536,,118511.504999944,6775.033899932168,120359.69099996146,120360.09609990288,7491.714599891566,118725.45789997092,,119368.578900001,118477.21899999306,Extended template,0,1.4320004265755415,58,yes,1024
0,0,0.0246355992789238,0.0246355992789238,white,yes,psycho,psycho,psycho,0,uniform,0,undefined,0,n,1,0,61,1,1,0,0,0,0,,61,0,61,61,0,61,1,61,61,Tue Dec  5 13:20:41 2023,A template containing a practice and an experimental phase,yes,언어학과심리실험_B조_기말과제용심리실험.osexp,C:\Users\caphi\Downloads,no,mono,no,18,no,black,no,no,768,psycho,58,58,0,C:\Users\caphi\Downloads\quickrun.csv,psycho,Lentiform Loewenfeld,3.3.14,no,물고기,natural,inclusive,0,None,,n,,a,None,n,0.0214999308809638,,770.0398999731988,,716.150899999775,0.0214999308809638,732.7359999762848,2,psycho,1024,2,48000,-16,experiment,999,odd,연어,natural,,121274.42749997137,12330.975899938494,12330.843599978834,,11559.1618999606,6733.804299961776,12330.09399997536,,120528.56739994604,6775.033899932168,122134.90730000194,122135.34419995268,7491.714599891566,120750.23029989096,,121401.18139993864,120489.6097999299,Extended template,0,1.4535003574565053,59,yes,1024
0,0,0.0246400052371124,0.0246400052371124,white,yes,psycho,psycho,psycho,0,uniform,0,undefined,0,n,1,0,62,1,1,0,0,0,0,,62,0,62,62,0,62,1,62,62,Tue Dec  5 13:20:41 2023,A template containing a practice and an experimental phase,yes,언어학과심리실험_B조_기말과제용심리실험.osexp,C:\Users\caphi\Downloads,no,mono,no,18,no,black,no,no,768,psycho,59,59,0,C:\Users\caphi\Downloads\quickrun.csv,psycho,Lentiform Loewenfeld,3.3.14,no,숲,natural,inclusive,0,None,,n,,a,None,n,0.0248999567702412,,770.0398999731988,,716.150899999775,0.0248999567702412,776.8344000214711,2,psycho,1024,2,48000,-16,experiment,999,odd,나무,natural,,123024.26529990043,12330.975899938494,12330.843599978834,,11559.1618999606,6733.804299961776,12330.09399997536,,122279.17429991066,6775.033899932168,123929.24129997846,123929.6897999011,7491.714599891566,122493.06669994256,,123151.41219994985,122252.51249992289,Extended template,0,1.4784003142267466,60,yes,1024
0,0,0.0246032828190287,0.0246032828190287,white,yes,psycho,psycho,psycho,0,uniform,0,undefined,0,a,1,0,63,1,1,0,0,0,0,,63,0,63,63,0,63,1,63,63,Tue Dec  5 13:20:41 2023,A template containing a practice and an experimental phase,yes,언어학과심리실험_B조_기말과제용심리실험.osexp,C:\Users\caphi\Downloads,no,mono,no,18,no,black,no,no,768,psycho,60,60,0,C:\Users\caphi\Downloads\quickrun.csv,psycho,Lentiform Loewenfeld,3.3.14,no,학교,artifactual,inclusive,0,None,,n,,a,None,a,0.0223999377340078,,770.0398999731988,,716.150899999775,0.0223999377340078,765.880599967204,2,psycho,1024,2,48000,-16,experiment,999,odd,학생,artifactual,,124800.60149997009,12330.975899938494,12330.843599978834,,11559.1618999606,6733.804299961776,12330.09399997536,,124061.04669999333,6775.033899932168,125674.50449999887,125674.93529990315,7491.714599891566,124275.1227999106,,124907.60099992622,124036.46869992372,Extended template,0,1.5008002519607544,61,yes,1024
0,0,0.0245629081262215,0.0245629081262215,white,yes,psycho,psycho,psycho,0,uniform,0,undefined,0,n,1,0,64,1,1,0,0,0,0,,64,0,64,64,0,64,1,64,64,Tue Dec  5 13:20:41 2023,A template containing a practice and an experimental phase,yes,언어학과심리실험_B조_기말과제용심리실험.osexp,C:\Users\caphi\Downloads,no,mono,no,18,no,black,no,no,768,psycho,61,61,0,C:\Users\caphi\Downloads\quickrun.csv,psycho,Lentiform Loewenfeld,3.3.14,no,태양계,natural,inclusive,0,None,,n,,a,None,n,0.0221000518649816,,770.0398999731988,,716.150899999775,0.0221000518649816,677.3074000375345,2,psycho,1024,2,48000,-16,experiment,999,odd,목성,natural,,126524.83989996836,12330.975899938494,12330.843599978834,,11559.1618999606,6733.804299961776,12330.09399997536,,125793.74379990622,6775.033899932168,127319.16899990756,127319.60119993892,7491.714599891566,126018.46969989128,,126640.88669989724,125784.7722999286,Extended template,0,1.522900303825736,62,yes,1024
0,0,0.024763495838713,0.024763495838713,white,yes,psycho,psycho,psycho,0,uniform,0,undefined,0,a,1,0,65,1,1,0,0,0,0,,65,0,65,65,0,65,1,65,65,Tue Dec  5 13:20:41 2023,A template containing a practice and an experimental phase,yes,언어학과심리실험_B조_기말과제용심리실험.osexp,C:\Users\caphi\Downloads,no,mono,no,18,no,black,no,no,768,psycho,62,62,0,C:\Users\caphi\Downloads\quickrun.csv,psycho,Lentiform Loewenfeld,3.3.14,no,건물,artifactual,inclusive,0,None,,n,,a,None,a,0.0371999340131878,,770.0398999731988,,716.150899999775,0.0371999340131878,711.5414999425411,2,psycho,1024,2,48000,-16,experiment,999,odd,병원,artifactual,,128190.950899967,12330.975899938494,12330.843599978834,,11559.1618999606,6733.804299961776,12330.09399997536,,127444.56409988923,6775.033899932168,129030.14539997092,129030.61289992183,7491.714599891566,127674.76989992429,,128317.52579996828,127432.49559996184,Extended template,0,1.560100237838924,63,yes,1024
0,0,0.0248953165282728,0.0248953165282728,white,yes,psycho,psycho,psycho,0,uniform,0,undefined,0,n,1,0,66,1,1,0,0,0,0,,66,0,66,66,0,66,1,66,66,Tue Dec  5 13:20:41 2023,A template containing a practice and an experimental phase,yes,언어학과심리실험_B조_기말과제용심리실험.osexp,C:\Users\caphi\Downloads,no,mono,no,18,no,black,no,no,768,psycho,63,63,0,C:\Users\caphi\Downloads\quickrun.csv,psycho,Lentiform Loewenfeld,3.3.14,no,밤하늘,natural,no-correlation,0,None,,n,,a,None,n,0.0332000199705362,,770.0398999731988,,716.150899999775,0.0332000199705362,719.2977999802679,2,psycho,1024,2,48000,-16,experiment,999,odd,바위,natural,,129907.7285999665,12330.975899938494,12330.843599978834,,11559.1618999606,6733.804299961776,12330.09399997536,,129161.35189996568,6775.033899932168,130745.20119989756,130745.81339990254,7491.714599891566,129374.31139999536,,130024.43549991584,129142.0533999335,Extended template,0,1.5933002578094602,64,yes,1024
0,0,0.0249861578385417,0.0249861578385417,white,yes,psycho,psycho,psycho,0,uniform,0,undefined,0,a,1,0,67,1,1,0,0,0,0,,67,0,67,67,0,67,1,67,67,Tue Dec  5 13:20:41 2023,A template containing a practice and an experimental phase,yes,언어학과심리실험_B조_기말과제용심리실험.osexp,C:\Users\caphi\Downloads,no,mono,no,18,no,black,no,no,768,psycho,64,64,0,C:\Users\caphi\Downloads\quickrun.csv,psycho,Lentiform Loewenfeld,3.3.14,no,악어,natural,same phoneme,0,None,,n,,a,None,a,0.0308000016957521,,770.0398999731988,,716.150899999775,0.0308000016957521,1889.2445999663323,2,psycho,1024,2,48000,-16,experiment,999,odd,악기,artifactual,,131649.3825999787,12330.975899938494,12330.843599978834,,11559.1618999606,6733.804299961776,12330.09399997536,,130894.0331999911,6775.033899932168,133649.82249995228,133650.2790999366,7491.714599891566,131126.69869989622,,131759.49049997143,130869.26189996302,Extended template,0,1.6241002595052123,65,yes,1024
0,0,0.0249757607834357,0.0249757607834357,white,yes,psycho,psycho,psycho,0,uniform,0,undefined,0,n,1,0,68,1,1,0,0,0,0,,68,0,68,68,0,68,1,68,68,Tue Dec  5 13:20:41 2023,A template containing a practice and an experimental phase,yes,언어학과심리실험_B조_기말과제용심리실험.osexp,C:\Users\caphi\Downloads,no,mono,no,18,no,black,no,no,768,psycho,65,65,0,C:\Users\caphi\Downloads\quickrun.csv,psycho,Lentiform Loewenfeld,3.3.14,no,과일,natural,inclusive,0,None,,n,,a,None,n,0.0242999522015452,,770.0398999731988,,716.150899999775,0.0242999522015452,1207.556699984707,2,psycho,1024,2,48000,-16,experiment,999,odd,사과,natural,,134542.00819996186,12330.975899938494,12330.843599978834,,11559.1618999606,6733.804299961776,12330.09399997536,,133786.59169992898,6775.033899932168,135875.19849999808,135875.65049994737,7491.714599891566,134018.82159989327,,134666.41959990375,133763.17089993972,Extended template,0,1.6484002117067575,66,yes,1024
0,0,0.0249208993653752,0.0249208993653752,white,yes,psycho,psycho,psycho,0,uniform,0,undefined,0,n,1,0,69,1,1,0,0,0,0,,69,0,69,69,0,69,1,69,69,Tue Dec  5 13:20:41 2023,A template containing a practice and an experimental phase,yes,언어학과심리실험_B조_기말과제용심리실험.osexp,C:\Users\caphi\Downloads,no,mono,no,18,no,black,no,no,768,psycho,66,66,0,C:\Users\caphi\Downloads\quickrun.csv,psycho,Lentiform Loewenfeld,3.3.14,no,불,natural,no-correlation,0,None,,n,,a,None,n,0.0213000457733869,,770.0398999731988,,716.150899999775,0.0213000457733869,667.8072999930009,2,psycho,1024,2,48000,-16,experiment,999,odd,물고기,natural,,136743.86779998895,12330.975899938494,12330.843599978834,,11559.1618999606,6733.804299961776,12330.09399997536,,136011.16080000065,6775.033899932168,137544.96589989867,137545.42079998646,7491.714599891566,136234.61189994123,,136876.0459999321,135986.70099989977,Extended template,0,1.6697002574801445,67,yes,1024
0,0,0.0249220636974581,0.0249220636974581,white,yes,psycho,psycho,psycho,0,uniform,0,undefined,0,n,1,0,70,1,1,0,0,0,0,,70,0,70,70,0,70,1,70,70,Tue Dec  5 13:20:41 2023,A template containing a practice and an experimental phase,yes,언어학과심리실험_B조_기말과제용심리실험.osexp,C:\Users\caphi\Downloads,no,mono,no,18,no,black,no,no,768,psycho,67,67,0,C:\Users\caphi\Downloads\quickrun.csv,psycho,Lentiform Loewenfeld,3.3.14,no,물고기,natural,no-correlation,0,None,,n,,a,None,n,0.0250000739470124,,770.0398999731988,,716.150899999775,0.0250000739470124,1143.6785999685526,2,psycho,1024,2,48000,-16,experiment,999,odd,밤하늘,natural,,138442.3841999378,12330.975899938494,12330.843599978834,,11559.1618999606,6733.804299961776,12330.09399997536,,137677.53059999086,6775.033899932168,139720.6776998937,139721.15409991238,7491.714599891566,137907.8843999887,,138575.74539992493,137664.5972999977,Extended template,0,1.694700331427157,68,yes,1024
0,0,0.0249536292951392,0.0249536292951392,white,yes,psycho,psycho,psycho,0,uniform,0,undefined,0,a,1,0,71,1,1,0,0,0,0,,71,0,71,71,0,71,1,71,71,Tue Dec  5 13:20:41 2023,A template containing a practice and an experimental phase,yes,언어학과심리실험_B조_기말과제용심리실험.osexp,C:\Users\caphi\Downloads,no,mono,no,18,no,black,no,no,768,psycho,68,68,0,C:\Users\caphi\Downloads\quickrun.csv,psycho,Lentiform Loewenfeld,3.3.14,no,성적표,artifactual,same phoneme,0,None,,n,,a,None,a,0.0271000899374485,,770.0398999731988,,716.150899999775,0.0271000899374485,710.3837999748066,2,psycho,1024,2,48000,-16,experiment,999,odd,성냥,artifactual,,140591.75479994155,12330.975899938494,12330.843599978834,,11559.1618999606,6733.804299961776,12330.09399997536,,139860.85629998706,6775.033899932168,141430.89669989422,141431.42669997178,7491.714599891566,140084.64569994248,,140719.24449992366,139830.04489995074,Extended template,0,1.7218004213646054,69,yes,1024
0,0,0.0249342909748,0.0249342909748,white,yes,psycho,psycho,psycho,0,uniform,0,undefined,0,n,1,0,72,1,1,0,0,0,0,,72,0,72,72,0,72,1,72,72,Tue Dec  5 13:20:41 2023,A template containing a practice and an experimental phase,yes,언어학과심리실험_B조_기말과제용심리실험.osexp,C:\Users\caphi\Downloads,no,mono,no,18,no,black,no,no,768,psycho,69,69,0,C:\Users\caphi\Downloads\quickrun.csv,psycho,Lentiform Loewenfeld,3.3.14,no,언덕,natural,no-correlation,0,None,,n,,a,None,n,0.0235999468713998,,770.0398999731988,,716.150899999775,0.0235999468713998,1004.9927999498324,2,psycho,1024,2,48000,-16,experiment,999,odd,고양이,natural,,142292.04779991414,12330.975899938494,12330.843599978834,,11559.1618999606,6733.804299961776,12330.09399997536,,141562.07389989868,6775.033899932168,143424.65599998832,143425.14049995225,7491.714599891566,141776.10879996791,,142418.60219999216,141540.41239991784,Extended template,0,1.7454003682360053,70,yes,1024
0,0,0.0249197244198179,0.0249197244198179,white,yes,psycho,psycho,psycho,0,uniform,0,undefined,0,n,1,0,73,1,1,0,0,0,0,,73,0,73,73,0,73,1,73,73,Tue Dec  5 13:20:41 2023,A template containing a practice and an experimental phase,yes,언어학과심리실험_B조_기말과제용심리실험.osexp,C:\Users\caphi\Downloads,no,mono,no,18,no,black,no,no,768,psycho,70,70,0,C:\Users\caphi\Downloads\quickrun.csv,psycho,Lentiform Loewenfeld,3.3.14,no,소방서,artifactual,same phoneme,0,None,,n,,a,None,n,0.0239000655710697,,770.0398999731988,,716.150899999775,0.0239000655710697,891.292899963446,2,psycho,1024,2,48000,-16,experiment,999,odd,소나무,natural,,144325.80229989253,12330.975899938494,12330.843599978834,,11559.1618999606,6733.804299961776,12330.09399997536,,143570.84429997485,6775.033899932168,145350.14589992352,145350.65219993703,7491.714599891566,143799.8523999704,,144457.73349993397,143540.20359995775,Extended template,0,1.769300433807075,71,yes,1024
0,0,0.0249486167578854,0.0249486167578854,white,yes,psycho,psycho,psycho,0,uniform,0,undefined,0,a,1,0,74,1,1,0,0,0,0,,74,0,74,74,0,74,1,74,74,Tue Dec  5 13:20:41 2023,A template containing a practice and an experimental phase,yes,언어학과심리실험_B조_기말과제용심리실험.osexp,C:\Users\caphi\Downloads,no,mono,no,18,no,black,no,no,768,psycho,71,71,0,C:\Users\caphi\Downloads\quickrun.csv,psycho,Lentiform Loewenfeld,3.3.14,no,카메라,artifactual,inclusive,0,None,,n,,a,None,a,0.0269999727606773,,770.0398999731988,,716.150899999775,0.0269999727606773,637.8432000055909,2,psycho,1024,2,48000,-16,experiment,999,odd,렌즈,artifactual,,146274.81350000016,12330.975899938494,12330.843599978834,,11559.1618999606,6733.804299961776,12330.09399997536,,145521.60009997897,6775.033899932168,147040.6000999501,147041.11499991268,7491.714599891566,145742.40180000197,,146401.5672999667,145470.08819994517,Extended template,0,1.7963004065677524,72,yes,1024
0,0,0.0250520589697646,0.0250520589697646,white,yes,psycho,psycho,psycho,0,uniform,0,undefined,0,x,1,0,75,1,1,0,0,0,0,,75,0,75,75,0,75,1,75,75,Tue Dec  5 13:20:41 2023,A template containing a practice and an experimental phase,yes,언어학과심리실험_B조_기말과제용심리실험.osexp,C:\Users\caphi\Downloads,no,mono,no,18,no,black,no,no,768,psycho,72,72,0,C:\Users\caphi\Downloads\quickrun.csv,psycho,Lentiform Loewenfeld,3.3.14,no,폭풍,natural,non-word,0,None,,n,,a,None,x,0.032499898225069,,770.0398999731988,,716.150899999775,0.032499898225069,893.4250000165775,2,psycho,1024,2,48000,-16,experiment,999,odd,섬강,non-word,,147918.14500000328,12330.975899938494,12330.843599978834,,11559.1618999606,6733.804299961776,12330.09399997536,,147177.61749995407,6775.033899932168,148920.94169999473,148921.5631999541,7491.714599891566,147393.06309993844,,148026.1051999405,147149.57599993795,Extended template,0,1.8288003047928212,73,yes,1024
0,0,0.0250121654086821,0.0250121654086821,white,yes,psycho,psycho,psycho,0,uniform,0,undefined,0,n,1,0,76,1,1,0,0,0,0,,76,0,76,76,0,76,1,76,76,Tue Dec  5 13:20:41 2023,A template containing a practice and an experimental phase,yes,언어학과심리실험_B조_기말과제용심리실험.osexp,C:\Users\caphi\Downloads,no,mono,no,18,no,black,no,no,768,psycho,73,73,0,C:\Users\caphi\Downloads\quickrun.csv,psycho,Lentiform Loewenfeld,3.3.14,no,꽃,natural,inclusive,0,None,,n,,a,None,n,0.0220999354496598,,770.0398999731988,,716.150899999775,0.0220999354496598,708.3530999952927,2,psycho,1024,2,48000,-16,experiment,999,odd,해바라기,natural,,149800.28259998653,12330.975899938494,12330.843599978834,,11559.1618999606,6733.804299961776,12330.09399997536,,149054.4147999026,6775.033899932168,150618.4663999593,150618.96559991874,7491.714599891566,149284.4084999524,,149908.92799990252,149025.74289997574,Extended template,0,1.8509002402424808,74,yes,1024
0,0,0.0253306701779365,0.0253306701779365,white,yes,psycho,psycho,psycho,0,uniform,0,undefined,0,n,1,0,77,1,1,0,0,0,0,,77,0,77,77,0,77,1,77,77,Tue Dec  5 13:20:41 2023,A template containing a practice and an experimental phase,yes,언어학과심리실험_B조_기말과제용심리실험.osexp,C:\Users\caphi\Downloads,no,mono,no,18,no,black,no,no,768,psycho,74,74,0,C:\Users\caphi\Downloads\quickrun.csv,psycho,Lentiform Loewenfeld,3.3.14,no,다리,artifactual,similar-environmental,0,None,,n,,a,None,n,0.0489000231027603,,770.0398999731988,,716.150899999775,0.0489000231027603,683.5705999983475,2,psycho,1024,2,48000,-16,experiment,999,odd,강,natural,,151491.9488999294,12330.975899938494,12330.843599978834,,11559.1618999606,6733.804299961776,12330.09399997536,,150755.43389993254,6775.033899932168,152305.1060999278,152305.7277998887,7491.714599891566,150975.84479989018,,151617.78809991665,150732.10159991868,Extended template,0,1.899800263345241,75,yes,1024
0,0,0.025281583044776,0.025281583044776,white,yes,psycho,psycho,psycho,0,uniform,0,undefined,0,n,1,0,78,1,1,0,0,0,0,,78,0,78,78,0,78,1,78,78,Tue Dec  5 13:20:41 2023,A template containing a practice and an experimental phase,yes,언어학과심리실험_B조_기말과제용심리실험.osexp,C:\Users\caphi\Downloads,no,mono,no,18,no,black,no,no,768,psycho,75,75,0,C:\Users\caphi\Downloads\quickrun.csv,psycho,Lentiform Loewenfeld,3.3.14,no,수영,artifactual,similar-environmental,0,None,,n,,a,None,n,0.0216000480577349,,770.0398999731988,,716.150899999775,0.0216000480577349,4026.567400083877,2,psycho,1024,2,48000,-16,experiment,999,odd,바다,natural,,153217.31009997893,12330.975899938494,12330.843599978834,,11559.1618999606,6733.804299961776,12330.09399997536,,152473.5423999373,6775.033899932168,157353.309399914,157353.82609989028,7491.714599891566,152692.39029998425,,153325.4996999167,152438.17379989196,Extended template,0,1.9214003114029763,76,yes,1024
0,0,0.0252389642349504,0.0252389642349504,white,yes,psycho,psycho,psycho,0,uniform,0,undefined,0,n,1,0,79,1,1,0,0,0,0,,79,0,79,79,0,79,1,79,79,Tue Dec  5 13:20:41 2023,A template containing a practice and an experimental phase,yes,언어학과심리실험_B조_기말과제용심리실험.osexp,C:\Users\caphi\Downloads,no,mono,no,18,no,black,no,no,768,psycho,76,76,0,C:\Users\caphi\Downloads\quickrun.csv,psycho,Lentiform Loewenfeld,3.3.14,no,오일,natural,same phoneme,0,None,,n,,a,None,n,0.0219999346882104,,770.0398999731988,,716.150899999775,0.0219999346882104,631.908499985002,2,psycho,1024,2,48000,-16,experiment,999,odd,오리,natural,,158275.77859989833,12330.975899938494,12330.843599978834,,11559.1618999606,6733.804299961776,12330.09399997536,,157523.34829990286,6775.033899932168,159033.51300000213,159034.01329996996,7491.714599891566,157749.59519994445,,158400.49859997816,157472.6225999184,Extended template,0,1.943400246091187,77,yes,1024
0,0,0.0251935935244919,0.0251935935244919,white,yes,psycho,psycho,psycho,0,uniform,0,undefined,0,n,1,0,80,1,1,0,0,0,0,,80,0,80,80,0,80,1,80,80,Tue Dec  5 13:20:41 2023,A template containing a practice and an experimental phase,yes,언어학과심리실험_B조_기말과제용심리실험.osexp,C:\Users\caphi\Downloads,no,mono,no,18,no,black,no,no,768,psycho,77,77,0,C:\Users\caphi\Downloads\quickrun.csv,psycho,Lentiform Loewenfeld,3.3.14,no,호수,natural,no-correlation,0,None,,n,,a,None,n,0.0217000488191843,,770.0398999731988,,716.150899999775,0.0217000488191843,633.0570999998599,2,psycho,1024,2,48000,-16,experiment,999,odd,소나무,natural,,159909.0423999587,12330.975899938494,12330.843599978834,,11559.1618999606,6733.804299961776,12330.09399997536,,159161.7062999867,6775.033899932168,160660.30819993466,160660.8278999338,7491.714599891566,159384.99219994992,,160026.08949993737,159140.34499996342,Extended template,0,1.9651002949103715,78,yes,1024
0,0,0.02515569912812,0.02515569912812,white,yes,psycho,psycho,psycho,0,uniform,0,undefined,0,a,1,0,81,1,1,0,0,0,0,,81,0,81,81,0,81,1,81,81,Tue Dec  5 13:20:41 2023,A template containing a practice and an experimental phase,yes,언어학과심리실험_B조_기말과제용심리실험.osexp,C:\Users\caphi\Downloads,no,mono,no,18,no,black,no,no,768,psycho,78,78,0,C:\Users\caphi\Downloads\quickrun.csv,psycho,Lentiform Loewenfeld,3.3.14,no,바다,natural,similar-environmental,0,None,,n,,a,None,a,0.0221999362111091,,770.0398999731988,,716.150899999775,0.0221999362111091,1724.4162999559194,2,psycho,1024,2,48000,-16,experiment,999,odd,배,artifactual,,161576.35439990554,12330.975899938494,12330.843599978834,,11559.1618999606,6733.804299961776,12330.09399997536,,160821.37669995427,6775.033899932168,163435.52339996677,163436.0386999324,7491.714599891566,161051.58699990716,,161709.89800000098,160773.5344999237,Extended template,0,1.9873002311214805,79,yes,1024
0,0,0.025136252224911,0.025136252224911,white,yes,psycho,psycho,psycho,0,uniform,0,undefined,0,a,1,0,82,1,1,0,0,0,0,,82,0,82,82,0,82,1,82,82,Tue Dec  5 13:20:41 2023,A template containing a practice and an experimental phase,yes,언어학과심리실험_B조_기말과제용심리실험.osexp,C:\Users\caphi\Downloads,no,mono,no,18,no,black,no,no,768,psycho,79,79,0,C:\Users\caphi\Downloads\quickrun.csv,psycho,Lentiform Loewenfeld,3.3.14,no,바람,natural,no-correlation,0,None,,n,,a,None,a,0.0235999468713998,,770.0398999731988,,716.150899999775,0.0235999468713998,716.0950000397861,2,psycho,1024,2,48000,-16,experiment,999,odd,버스,artifactual,,164308.10149991885,12330.975899938494,12330.843599978834,,11559.1618999606,6733.804299961776,12330.09399997536,,163570.64319995698,6775.033899932168,165151.4637999935,165152.00469992124,7491.714599891566,163801.7759999493,,164434.14699996356,163545.11449998245,Extended template,0,2.0109001779928803,80,yes,1024
0,0,0.0251222252385851,0.0251222252385851,white,yes,psycho,psycho,psycho,0,uniform,0,undefined,0,n,1,0,83,1,1,0,0,0,0,,83,0,83,83,0,83,1,83,83,Tue Dec  5 13:20:41 2023,A template containing a practice and an experimental phase,yes,언어학과심리실험_B조_기말과제용심리실험.osexp,C:\Users\caphi\Downloads,no,mono,no,18,no,black,no,no,768,psycho,80,80,0,C:\Users\caphi\Downloads\quickrun.csv,psycho,Lentiform Loewenfeld,3.3.14,no,패딩,artifactual,similar-environmental,0,None,,n,,a,None,n,0.024000066332519,,770.0398999731988,,716.150899999775,0.024000066332519,874.4995000306517,2,psycho,1024,2,48000,-16,experiment,999,odd,겨울,natural,,166025.17629996873,12330.975899938494,12330.843599978834,,11559.1618999606,6733.804299961776,12330.09399997536,,165288.66439999547,6775.033899932168,167025.38189990446,167025.91829991434,7491.714599891566,165519.1283999011,,166149.72319989465,165267.886799993,Extended template,0,2.0349002443253994,81,yes,1024
0,0,0.0251487831630539,0.0251487831630539,white,yes,psycho,psycho,psycho,0,uniform,0,undefined,0,n,1,0,84,1,1,0,0,0,0,,84,0,84,84,0,84,1,84,84,Tue Dec  5 13:20:41 2023,A template containing a practice and an experimental phase,yes,언어학과심리실험_B조_기말과제용심리실험.osexp,C:\Users\caphi\Downloads,no,mono,no,18,no,black,no,no,768,psycho,81,81,0,C:\Users\caphi\Downloads\quickrun.csv,psycho,Lentiform Loewenfeld,3.3.14,no,상새고,non-word,non-word,0,None,,n,,a,None,n,0.0272999750450253,,770.0398999731988,,716.150899999775,0.0272999750450253,627.4408999597654,2,psycho,1024,2,48000,-16,experiment,999,odd,나뭇잎,natural,,167891.95909991395,12330.975899938494,12330.843599978834,,11559.1618999606,6733.804299961776,12330.09399997536,,167161.69109998737,6775.033899932168,168645.9228999447,168646.48709993344,7491.714599891566,167376.06379995123,,168017.19819998834,167143.07699992787,Extended template,0,2.0622002193704247,82,yes,1024
0,0,0.0251240997451795,0.0251240997451795,white,yes,psycho,psycho,psycho,0,uniform,0,undefined,0,a,1,0,85,1,1,0,0,0,0,,85,0,85,85,0,85,1,85,85,Tue Dec  5 13:20:41 2023,A template containing a practice and an experimental phase,yes,언어학과심리실험_B조_기말과제용심리실험.osexp,C:\Users\caphi\Downloads,no,mono,no,18,no,black,no,no,768,psycho,82,82,0,C:\Users\caphi\Downloads\quickrun.csv,psycho,Lentiform Loewenfeld,3.3.14,no,영화,artifactual,similar-environmental,0,None,,n,,a,None,a,0.023100059479475,,770.0398999731988,,716.150899999775,0.023100059479475,1030.2651000674814,2,psycho,1024,2,48000,-16,experiment,999,odd,드라마,artifactual,,169509.15229995735,12330.975899938494,12330.843599978834,,11559.1618999606,6733.804299961776,12330.09399997536,,168777.4378999602,6775.033899932168,170666.6080999421,170667.17379994225,7491.714599891566,168992.54729994573,,169634.94119991083,168758.15899996087,Extended template,0,2.0853002788499,83,yes,1024
0,0,0.0251107183950287,0.0251107183950287,white,yes,psycho,psycho,psycho,0,uniform,0,undefined,0,n,1,0,86,1,1,0,0,0,0,,86,0,86,86,0,86,1,86,86,Tue Dec  5 13:20:41 2023,A template containing a practice and an experimental phase,yes,언어학과심리실험_B조_기말과제용심리실험.osexp,C:\Users\caphi\Downloads,no,mono,no,18,no,black,no,no,768,psycho,83,83,0,C:\Users\caphi\Downloads\quickrun.csv,psycho,Lentiform Loewenfeld,3.3.14,no,스노우보드,artifactual,no-correlation,0,None,,n,,a,None,n,0.024000066332519,,770.0398999731988,,716.150899999775,0.024000066332519,630.3328999783844,2,psycho,1024,2,48000,-16,experiment,999,odd,꽃,natural,,171541.46399989258,12330.975899938494,12330.843599978834,,11559.1618999606,6733.804299961776,12330.09399997536,,170804.11839997396,6775.033899932168,172299.30739989504,172299.87469990738,7491.714599891566,171025.72789997794,,171667.7060999209,170777.83319994342,Extended template,0,2.109300345182419,84,yes,1024
0,0,0.0251964734428945,0.0251964734428945,white,yes,psycho,psycho,psycho,0,uniform,0,undefined,0,n,1,0,87,1,1,0,0,0,0,,87,0,87,87,0,87,1,87,87,Tue Dec  5 13:20:41 2023,A template containing a practice and an experimental phase,yes,언어학과심리실험_B조_기말과제용심리실험.osexp,C:\Users\caphi\Downloads,no,mono,no,18,no,black,no,no,768,psycho,84,84,0,C:\Users\caphi\Downloads\quickrun.csv,psycho,Lentiform Loewenfeld,3.3.14,no,달력,artifactual,same phoneme,0,None,,n,,a,None,n,0.0323998974636197,,770.0398999731988,,716.150899999775,0.0323998974636197,617.426099954173,2,psycho,1024,2,48000,-16,experiment,999,odd,달,natural,,173192.08059995435,12330.975899938494,12330.843599978834,,11559.1618999606,6733.804299961776,12330.09399997536,,172445.79329993576,6775.033899932168,173936.99509999715,173937.772699981,7491.714599891566,172675.192900002,,173318.325500004,172410.26519995648,Extended template,0,2.1417002426460385,85,yes,1024
0,0,0.0251523289439636,0.0251523289439636,white,yes,psycho,psycho,psycho,0,uniform,0,undefined,0,x,1,0,88,1,1,0,0,0,0,,88,0,88,88,0,88,1,88,88,Tue Dec  5 13:20:41 2023,A template containing a practice and an experimental phase,yes,언어학과심리실험_B조_기말과제용심리실험.osexp,C:\Users\caphi\Downloads,no,mono,no,18,no,black,no,no,768,psycho,85,85,0,C:\Users\caphi\Downloads\quickrun.csv,psycho,Lentiform Loewenfeld,3.3.14,no,냉장고,artifactual,non-word,0,None,,n,,a,None,x,0.0214000465348362,,770.0398999731988,,716.150899999775,0.0214000465348362,1158.2705999026075,2,psycho,1024,2,48000,-16,experiment,999,odd,로방삭,non-word,,174824.8401999008,12330.975899938494,12330.843599978834,,11559.1618999606,6733.804299961776,12330.09399997536,,174086.75489993766,6775.033899932168,176119.1185999196,176119.69669989776,7491.714599891566,174309.6112998901,,174959.62099998724,174058.2084999187,Extended template,0,2.163100289180875,86,yes,1024
0,0,0.0251160945272308,0.0251160945272308,white,yes,psycho,psycho,psycho,0,uniform,0,undefined,0,n,1,0,89,1,1,0,0,0,0,,89,0,89,89,0,89,1,89,89,Tue Dec  5 13:20:41 2023,A template containing a practice and an experimental phase,yes,언어학과심리실험_B조_기말과제용심리실험.osexp,C:\Users\caphi\Downloads,no,mono,no,18,no,black,no,no,768,psycho,86,86,0,C:\Users\caphi\Downloads\quickrun.csv,psycho,Lentiform Loewenfeld,3.3.14,no,해마,natural,same phoneme,0,None,,n,,a,None,n,0.0219999346882104,,770.0398999731988,,716.150899999775,0.0219999346882104,701.3292999472469,2,psycho,1024,2,48000,-16,experiment,999,odd,해질녘,natural,,177026.3775999192,12330.975899938494,12330.843599978834,,11559.1618999606,6733.804299961776,12330.09399997536,,176261.92639989313,6775.033899932168,177860.56169995572,177861.11399997026,7491.714599891566,176492.4475000007,,177158.08139997534,176230.64889991656,Extended template,0,2.1851002238690853,87,yes,1024
0,0,0.025312502244064,0.025312502244064,white,yes,psycho,psycho,psycho,0,uniform,0,undefined,0,n,1,0,90,1,1,0,0,0,0,,90,0,90,90,0,90,1,90,90,Tue Dec  5 13:20:41 2023,A template containing a practice and an experimental phase,yes,언어학과심리실험_B조_기말과제용심리실험.osexp,C:\Users\caphi\Downloads,no,mono,no,18,no,black,no,no,768,psycho,87,87,0,C:\Users\caphi\Downloads\quickrun.csv,psycho,Lentiform Loewenfeld,3.3.14,no,스노우보드,artifactual,no-correlation,0,None,,n,,a,None,n,0.0423999736085534,,770.0398999731988,,716.150899999775,0.0423999736085534,714.9220000719652,2,psycho,1024,2,48000,-16,experiment,999,odd,소나무,natural,,178768.95769999828,12330.975899938494,12330.843599978834,,11559.1618999606,6733.804299961776,12330.09399997536,,177995.13219995424,6775.033899932168,179591.84569993522,179592.58279995993,7491.714599891566,178226.26089991536,,178875.20209990907,177972.00379997955,Extended template,0,2.2275001974776387,88,yes,1024
0,0,0.0252730351757634,0.0252730351757634,white,yes,psycho,psycho,psycho,0,uniform,0,undefined,0,a,1,0,91,1,1,0,0,0,0,,91,0,91,91,0,91,1,91,91,Tue Dec  5 13:20:41 2023,A template containing a practice and an experimental phase,yes,언어학과심리실험_B조_기말과제용심리실험.osexp,C:\Users\caphi\Downloads,no,mono,no,18,no,black,no,no,768,psycho,88,88,0,C:\Users\caphi\Downloads\quickrun.csv,psycho,Lentiform Loewenfeld,3.3.14,no,시,artifactual,similar-environmental,0,None,,n,,a,None,a,0.0217999331653118,,770.0398999731988,,716.150899999775,0.0217999331653118,857.5838000979275,2,psycho,1024,2,48000,-16,experiment,999,odd,소설,artifactual,,180475.6836999441,12330.975899938494,12330.843599978834,,11559.1618999606,6733.804299961776,12330.09399997536,,179728.94619998988,6775.033899932168,181460.84089996293,181461.4195999457,7491.714599891566,179959.47709993925,,180602.0234999014,179706.8921999307,Extended template,0,2.2493001306429505,89,yes,1024
0,0,0.025293334490723,0.025293334490723,white,yes,psycho,psycho,psycho,0,uniform,0,undefined,0,n,1,0,92,1,1,0,0,0,0,,92,0,92,92,0,92,1,92,92,Tue Dec  5 13:20:41 2023,A template containing a practice and an experimental phase,yes,언어학과심리실험_B조_기말과제용심리실험.osexp,C:\Users\caphi\Downloads,no,mono,no,18,no,black,no,no,768,psycho,89,89,0,C:\Users\caphi\Downloads\quickrun.csv,psycho,Lentiform Loewenfeld,3.3.14,no,경주,artifactual,no-correlation,0,None,,n,,a,None,n,0.0270999735221266,,770.0398999731988,,716.150899999775,0.0270999735221266,793.481900007464,2,psycho,1024,2,48000,-16,experiment,999,odd,소나무,natural,,182325.84710000083,12330.975899938494,12330.843599978834,,11559.1618999606,6733.804299961776,12330.09399997536,,181595.14539991505,6775.033899932168,183246.132500004,183246.83309998363,7491.714599891566,181816.96309999097,,182451.19429996703,181574.01599991132,Extended template,0,2.276400104165077,90,yes,1024
0,0,0.0253802211443474,0.0253802211443474,white,yes,psycho,psycho,psycho,0,uniform,0,undefined,0,n,1,0,93,1,1,0,0,0,0,,93,0,93,93,0,93,1,93,93,Tue Dec  5 13:20:41 2023,A template containing a practice and an experimental phase,yes,언어학과심리실험_B조_기말과제용심리실험.osexp,C:\Users\caphi\Downloads,no,mono,no,18,no,black,no,no,768,psycho,90,90,0,C:\Users\caphi\Downloads\quickrun.csv,psycho,Lentiform Loewenfeld,3.3.14,no,보트,artifactual,same phoneme,0,None,,n,,a,None,n,0.0332000199705362,,770.0398999731988,,716.150899999775,0.0332000199705362,682.9848999623209,2,psycho,1024,2,48000,-16,experiment,999,odd,보름달,natural,,184142.5317999674,12330.975899938494,12330.843599978834,,11559.1618999606,6733.804299961776,12330.09399997536,,183387.9075999139,6775.033899932168,184951.7047998961,184952.4457999505,7491.714599891566,183618.80639998708,,184267.34459993892,183358.7226999225,Extended template,0,2.309600124135613,91,yes,1024
0,0,0.0253336974824576,0.0253336974824576,white,yes,psycho,psycho,psycho,0,uniform,0,undefined,0,a,1,0,94,1,1,0,0,0,0,,94,0,94,94,0,94,1,94,94,Tue Dec  5 13:20:41 2023,A template containing a practice and an experimental phase,yes,언어학과심리실험_B조_기말과제용심리실험.osexp,C:\Users\caphi\Downloads,no,mono,no,18,no,black,no,no,768,psycho,91,91,0,C:\Users\caphi\Downloads\quickrun.csv,psycho,Lentiform Loewenfeld,3.3.14,no,바다,natural,same phoneme,0,None,,n,,a,None,a,0.0211000442504882,,770.0398999731988,,716.150899999775,0.0211000442504882,998.5257000662386,2,psycho,1024,2,48000,-16,experiment,999,odd,바닥,artifactual,,185825.8926999988,12330.975899938494,12330.843599978834,,11559.1618999606,6733.804299961776,12330.09399997536,,185095.86979995947,6775.033899932168,186950.8486998966,186951.4263999881,7491.714599891566,185309.38219989184,,185951.11089991409,185066.54219992924,Extended template,0,2.3307001683861017,92,yes,1024
0,0,0.0253473133129137,0.0253473133129137,white,yes,psycho,psycho,psycho,0,uniform,0,undefined,0,n,1,0,95,1,1,0,0,0,0,,95,0,95,95,0,95,1,95,95,Tue Dec  5 13:20:41 2023,A template containing a practice and an experimental phase,yes,언어학과심리실험_B조_기말과제용심리실험.osexp,C:\Users\caphi\Downloads,no,mono,no,18,no,black,no,no,768,psycho,92,92,0,C:\Users\caphi\Downloads\quickrun.csv,psycho,Lentiform Loewenfeld,3.3.14,no,늪,natural,similar-environmental,0,None,,n,,a,None,n,0.0265999697148799,,770.0398999731988,,716.150899999775,0.0265999697148799,616.68550001923,2,psycho,1024,2,48000,-16,experiment,999,odd,악어,natural,,187825.66439989023,12330.975899938494,12330.843599978834,,11559.1618999606,6733.804299961776,12330.09399997536,,187077.58359995205,6775.033899932168,188576.64699992165,188577.2801999701,7491.714599891566,187301.22809996828,,187958.7012999691,187062.86379997616,Extended template,0,2.3573001381009817,93,yes,1024
0,0,0.0253042560367983,0.0253042560367983,white,yes,psycho,psycho,psycho,0,uniform,0,undefined,0,n,1,0,96,1,1,0,0,0,0,,96,0,96,96,0,96,1,96,96,Tue Dec  5 13:20:41 2023,A template containing a practice and an experimental phase,yes,언어학과심리실험_B조_기말과제용심리실험.osexp,C:\Users\caphi\Downloads,no,mono,no,18,no,black,no,no,768,psycho,93,93,0,C:\Users\caphi\Downloads\quickrun.csv,psycho,Lentiform Loewenfeld,3.3.14,no,항구,artifactual,similar-environmental,0,None,,n,,a,None,n,0.0212999293580651,,770.0398999731988,,716.150899999775,0.0212999293580651,720.4282999737188,2,psycho,1024,2,48000,-16,experiment,999,odd,바다,natural,,189459.74129997197,12330.975899938494,12330.843599978834,,11559.1618999606,6733.804299961776,12330.09399997536,,188728.3696999075,6775.033899932168,190306.7321999697,190307.3440999724,7491.714599891566,188942.00219993945,,189585.0000999635,188690.06299995817,Extended template,0,2.378600067459047,94,yes,1024
0,0,0.0254663160855048,0.0254663160855048,white,yes,psycho,psycho,psycho,0,uniform,0,undefined,0,n,1,0,97,1,1,0,0,0,0,,97,0,97,97,0,97,1,97,97,Tue Dec  5 13:20:41 2023,A template containing a practice and an experimental phase,yes,언어학과심리실험_B조_기말과제용심리실험.osexp,C:\Users\caphi\Downloads,no,mono,no,18,no,black,no,no,768,psycho,94,94,0,C:\Users\caphi\Downloads\quickrun.csv,psycho,Lentiform Loewenfeld,3.3.14,no,태양,natural,same phoneme,0,None,,n,,a,None,n,0.0406999606639146,,770.0398999731988,,716.150899999775,0.0406999606639146,904.4244999531657,2,psycho,1024,2,48000,-16,experiment,999,odd,태풍,natural,,191208.22279993445,12330.975899938494,12330.843599978834,,11559.1618999606,6733.804299961776,12330.09399997536,,190455.9807999758,6775.033899932168,192231.8777999608,192232.5791999465,7491.714599891566,190685.5418999912,,191325.59969997965,190419.0714999568,Extended template,0,2.419300028122961,95,yes,1024
0,0,0.0254229174364202,0.0254229174364202,white,yes,psycho,psycho,psycho,0,uniform,0,undefined,0,n,1,0,98,1,1,0,0,0,0,,98,0,98,98,0,98,1,98,98,Tue Dec  5 13:20:41 2023,A template containing a practice and an experimental phase,yes,언어학과심리실험_B조_기말과제용심리실험.osexp,C:\Users\caphi\Downloads,no,mono,no,18,no,black,no,no,768,psycho,95,95,0,C:\Users\caphi\Downloads\quickrun.csv,psycho,Lentiform Loewenfeld,3.3.14,no,세금,artifactual,same phoneme,0,None,,n,,a,None,n,0.0213000457733869,,770.0398999731988,,716.150899999775,0.0213000457733869,678.688499960117,2,psycho,1024,2,48000,-16,experiment,999,odd,세포,natural,,193108.7789000012,12330.975899938494,12330.843599978834,,11559.1618999606,6733.804299961776,12330.09399997536,,192369.555399986,6775.033899932168,193905.9156998992,193906.56229993328,7491.714599891566,192592.00529998637,,193225.93139996752,192343.20829994977,Extended template,0,2.4406000738963485,96,yes,1024
0,0,0.0253773207977874,0.0253773207977874,white,yes,psycho,psycho,psycho,0,uniform,0,undefined,0,a,1,0,99,1,1,0,0,0,0,,99,0,99,99,0,99,1,99,99,Tue Dec  5 13:20:41 2023,A template containing a practice and an experimental phase,yes,언어학과심리실험_B조_기말과제용심리실험.osexp,C:\Users\caphi\Downloads,no,mono,no,18,no,black,no,no,768,psycho,96,96,0,C:\Users\caphi\Downloads\quickrun.csv,psycho,Lentiform Loewenfeld,3.3.14,no,벌레,natural,same phoneme,0,None,,n,,a,None,a,0.0210000434890389,,770.0398999731988,,716.150899999775,0.0210000434890389,1084.8927000770343,2,psycho,1024,2,48000,-16,experiment,999,odd,발레,artifactual,,194768.70789995883,12330.975899938494,12330.843599978834,,11559.1618999606,6733.804299961776,12330.09399997536,,194027.81909995247,6775.033899932168,195961.10649988987,195961.7175000021,7491.714599891566,194250.1085998956,,194874.98899991624,194018.746299902,Extended template,0,2.4616001173853874,97,yes,1024
0,0,0.0253428588621318,0.0253428588621318,white,yes,psycho,psycho,psycho,0,uniform,0,undefined,0,n,1,0,100,1,1,0,0,0,0,,100,0,100,100,0,100,1,100,100,Tue Dec  5 13:20:41 2023,A template containing a practice and an experimental phase,yes,언어학과심리실험_B조_기말과제용심리실험.osexp,C:\Users\caphi\Downloads,no,mono,no,18,no,black,no,no,768,psycho,97,97,0,C:\Users\caphi\Downloads\quickrun.csv,psycho,Lentiform Loewenfeld,3.3.14,no,새,natural,inclusive,0,None,,n,,a,None,n,0.0220000511035323,,770.0398999731988,,716.150899999775,0.0220000511035323,825.6034000078216,2,psycho,1024,2,48000,-16,experiment,999,odd,까치,natural,,196851.8218999961,12330.975899938494,12330.843599978834,,11559.1618999606,6733.804299961776,12330.09399997536,,196095.3892999096,6775.033899932168,197786.39229992405,197787.0003998978,7491.714599891566,196326.48920000065,,196959.4335999573,196069.5332000032,Extended template,0,2.48360016848892,98,yes,1024
0,0,0.025298990864269,0.025298990864269,white,yes,psycho,psycho,psycho,0,uniform,0,undefined,0,a,1,0,101,1,1,0,0,0,0,,101,0,101,101,0,101,1,101,101,Tue Dec  5 13:20:41 2023,A template containing a practice and an experimental phase,yes,언어학과심리실험_B조_기말과제용심리실험.osexp,C:\Users\caphi\Downloads,no,mono,no,18,no,black,no,no,768,psycho,98,98,0,C:\Users\caphi\Downloads\quickrun.csv,psycho,Lentiform Loewenfeld,3.3.14,no,바람,natural,similar-environmental,0,None,,n,,a,None,a,0.0209999270737171,,770.0398999731988,,716.150899999775,0.0209999270737171,959.9051000550388,2,psycho,1024,2,48000,-16,experiment,999,odd,창문,artifactual,,198668.3035999304,12330.975899938494,12330.843599978834,,11559.1618999606,6733.804299961776,12330.09399997536,,197911.48699994665,6775.033899932168,199736.938499962,199737.57609992757,7491.714599891566,198141.93579996936,,198775.799099938,197897.87799993064,Extended template,0,2.504600095562637,99,yes,1024
0,0,0.0252620014362037,0.0252620014362037,white,yes,psycho,psycho,psycho,0,uniform,0,undefined,0,n,1,0,102,1,1,0,0,0,0,,102,0,102,102,0,102,1,102,102,Tue Dec  5 13:20:41 2023,A template containing a practice and an experimental phase,yes,언어학과심리실험_B조_기말과제용심리실험.osexp,C:\Users\caphi\Downloads,no,mono,no,18,no,black,no,no,768,psycho,99,99,0,C:\Users\caphi\Downloads\quickrun.csv,psycho,Lentiform Loewenfeld,3.3.14,no,얼음,natural,no-correlation,0,None,,n,,a,None,n,0.0216000480577349,,770.0398999731988,,716.150899999775,0.0216000480577349,754.9873000243679,2,psycho,1024,2,48000,-16,experiment,999,odd,돌,natural,,200602.3505999474,12330.975899938494,12330.843599978834,,11559.1618999606,6733.804299961776,12330.09399997536,,199861.99359991588,6775.033899932168,201482.24239994303,201482.8895999817,7491.714599891566,200075.2295999555,,200725.5719999084,199844.3967999192,Extended template,0,2.526200143620372,100,yes,1024
0,0,0.0252336641718255,0.0252336641718255,white,yes,psycho,psycho,psycho,0,uniform,0,undefined,0,n,1,0,103,1,1,0,0,0,0,,103,0,103,103,0,103,1,103,103,Tue Dec  5 13:20:41 2023,A template containing a practice and an experimental phase,yes,언어학과심리실험_B조_기말과제용심리실험.osexp,C:\Users\caphi\Downloads,no,mono,no,18,no,black,no,no,768,psycho,100,100,0,C:\Users\caphi\Downloads\quickrun.csv,psycho,Lentiform Loewenfeld,3.3.14,no,동굴,natural,similar-environmental,0,None,,n,,a,None,n,0.0223999377340078,,770.0398999731988,,716.150899999775,0.0223999377340078,1390.7779000001028,2,psycho,1024,2,48000,-16,experiment,999,odd,박쥐,natural,,202359.9152999232,12330.975899938494,12330.843599978834,,11559.1618999606,6733.804299961776,12330.09399997536,,201611.4541999996,6775.033899932168,203876.43369997383,203877.0708999364,7491.714599891566,201841.88009996436,,202484.3274999876,201600.50760000013,Extended template,0,2.54860008135438,101,yes,1024
0,0,0.0252803929113582,0.0252803929113582,white,yes,psycho,psycho,psycho,0,uniform,0,undefined,0,n,1,0,104,1,1,0,0,0,0,,104,0,104,104,0,104,1,104,104,Tue Dec  5 13:20:41 2023,A template containing a practice and an experimental phase,yes,언어학과심리실험_B조_기말과제용심리실험.osexp,C:\Users\caphi\Downloads,no,mono,no,18,no,black,no,no,768,psycho,101,101,0,C:\Users\caphi\Downloads\quickrun.csv,psycho,Lentiform Loewenfeld,3.3.14,no,악어,natural,similar-environmental,0,None,,n,,a,None,n,0.0299999956041574,,770.0398999731988,,716.150899999775,0.0299999956041574,793.5574000002816,2,psycho,1024,2,48000,-16,experiment,999,odd,늪,natural,,204758.65529989824,12330.975899938494,12330.843599978834,,11559.1618999606,6733.804299961776,12330.09399997536,,204021.79209992755,6775.033899932168,205679.79889991693,205680.50809996203,7491.714599891566,204241.9048999436,,204884.913399932,203988.27329999767,Extended template,0,2.578600076958537,102,yes,1024
0,0,0.0252427185153208,0.0252427185153208,white,yes,psycho,psycho,psycho,0,uniform,0,undefined,0,a,1,0,105,1,1,0,0,0,0,,105,0,105,105,0,105,1,105,105,Tue Dec  5 13:20:41 2023,A template containing a practice and an experimental phase,yes,언어학과심리실험_B조_기말과제용심리실험.osexp,C:\Users\caphi\Downloads,no,mono,no,18,no,black,no,no,768,psycho,102,102,0,C:\Users\caphi\Downloads\quickrun.csv,psycho,Lentiform Loewenfeld,3.3.14,no,선설수,non-word,non-word,0,None,,n,,a,None,a,0.0213999301195144,,770.0398999731988,,716.150899999775,0.0213999301195144,723.5809999983758,2,psycho,1024,2,48000,-16,experiment,999,odd,시계,artifactual,,206567.2558998922,12330.975899938494,12330.843599978834,,11559.1618999606,6733.804299961776,12330.09399997536,,205820.882699918,6775.033899932168,207426.4435999794,207427.0826999564,7491.714599891566,206042.1430999413,,206701.61939994432,205791.22089990412,Extended template,0,2.600000007078052,103,yes,1024
0,0,0.0252086543836272,0.0252086543836272,white,yes,psycho,psycho,psycho,0,uniform,0,undefined,0,a,1,0,106,1,1,0,0,0,0,,106,0,106,106,0,106,1,106,106,Tue Dec  5 13:20:41 2023,A template containing a practice and an experimental phase,yes,언어학과심리실험_B조_기말과제용심리실험.osexp,C:\Users\caphi\Downloads,no,mono,no,18,no,black,no,no,768,psycho,103,103,0,C:\Users\caphi\Downloads\quickrun.csv,psycho,Lentiform Loewenfeld,3.3.14,no,로켓,artifactual,same phoneme,0,None,,n,,a,None,a,0.0217000488191843,,770.0398999731988,,716.150899999775,0.0217000488191843,792.8248998941854,2,psycho,1024,2,48000,-16,experiment,999,odd,로봇,artifactual,,208308.8888999773,12330.975899938494,12330.843599978834,,11559.1618999606,6733.804299961776,12330.09399997536,,207561.5641999757,6775.033899932168,209236.41779995523,209237.0690999087,7491.714599891566,207775.7836999372,,208442.3769999994,207539.309799904,Extended template,0,2.621700055897236,104,yes,1024
