acc,accuracy,average_response_time,avg_rt,background,bidi,canvas_backend,clock_backend,color_backend,compensation,coordinates,correct,correct_instructions,correct_keyboard_response,correct_response,correct_target,count_about_this_template,count_blank,count_block_loop,count_block_sequence,count_end_of_experiment,count_end_of_practice,count_experiment,count_experimental_loop,count_feedback,count_fixation,count_instructions,count_keyboard_response,count_logger,count_practice_loop,count_prime,count_reset_feedback,count_target,count_trial_sequence,datetime,description,disable_garbage_collection,experiment_file,experiment_path,font_bold,font_family,font_italic,font_size,font_underline,foreground,form_clicks,fullscreen,height,keyboard_backend,live_row,live_row_block_loop,live_row_practice_loop,logfile,mouse_backend,opensesame_codename,opensesame_version,practice,prime,prime_condition,relation,repeat_cycle,response,response_end_of_experiment,response_end_of_practice,response_feedback,response_instructions,response_keyboard_response,response_target,response_time,response_time_end_of_experiment,response_time_end_of_practice,response_time_feedback,response_time_instructions,response_time_keyboard_response,response_time_target,round_decimals,sampler_backend,sound_buf_size,sound_channels,sound_freq,sound_sample_size,start,subject_nr,subject_parity,target,target_condition,time_about_this_template,time_blank,time_block_loop,time_block_sequence,time_end_of_experiment,time_end_of_practice,time_experiment,time_experimental_loop,time_feedback,time_fixation,time_instructions,time_keyboard_response,time_logger,time_practice_loop,time_prime,time_reset_feedback,time_target,time_trial_sequence,title,total_correct,total_response_time,total_responses,uniform_coordinates,width
0,0,0.022500054910779,0.022500054910779,white,yes,psycho,psycho,psycho,0,uniform,0,undefined,0,a,1,0,0,0,0,0,0,0,0,,0,0,0,0,0,0,0,0,0,Tue Dec  5 17:25:55 2023,A template containing a practice and an experimental phase,yes,언어학과심리실험_B조_기말과제용심리실험.osexp,C:\Users\caphi\Downloads,no,mono,no,18,no,black,no,no,768,psycho,0,0,0,C:\Users\caphi\Downloads\quickrun.csv,psycho,Lentiform Loewenfeld,3.3.14,yes,프린터,artifactual,similar-environmental,0,None,,,,s,None,a,0.022500054910779,,,,1121.1820000316948,0.022500054910779,355.84239999298006,2,psycho,1024,2,48000,-16,experiment,999,odd,종이,artifactual,,6981.934400042519,6121.051199967042,6120.947499992326,,,4176.728500053287,,,6248.491800040938,4998.678699950688,7455.413399962708,7455.532900057733,6120.419800048694,6465.4205000260845,,7098.988199955784,6171.239500050433,Extended template,0,0.022500054910779,1,yes,1024
0,0,0.0246000126935541,0.0246000126935541,white,yes,psycho,psycho,psycho,0,uniform,0,undefined,0,a,0,0,1,0,0,0,0,0,0,,1,0,1,1,0,1,0,1,1,Tue Dec  5 17:25:55 2023,A template containing a practice and an experimental phase,yes,언어학과심리실험_B조_기말과제용심리실험.osexp,C:\Users\caphi\Downloads,no,mono,no,18,no,black,no,no,768,psycho,1,1,0,C:\Users\caphi\Downloads\quickrun.csv,psycho,Lentiform Loewenfeld,3.3.14,yes,마우스,artifactual,no-correlation,0,None,,,,s,None,n,0.0266999704763293,,,,1121.1820000316948,0.0266999704763293,103.10900001786648,2,psycho,1024,2,48000,-16,experiment,999,odd,모자,artifactual,,8315.576100023463,6121.051199967042,6120.947499992326,,,4176.728500053287,,,7582.666600006632,4998.678699950688,8535.515600000508,8535.64949997235,6120.419800048694,7799.28130004555,,8431.739300023764,7564.217400038615,Extended template,0,0.0492000253871083,2,yes,1024
0,0,0.0235333573073148,0.0235333573073148,white,yes,psycho,psycho,psycho,0,uniform,0,undefined,0,a,0,0,2,0,0,0,0,0,0,,2,0,2,2,0,2,0,2,2,Tue Dec  5 17:25:55 2023,A template containing a practice and an experimental phase,yes,언어학과심리실험_B조_기말과제용심리실험.osexp,C:\Users\caphi\Downloads,no,mono,no,18,no,black,no,no,768,psycho,2,2,0,C:\Users\caphi\Downloads\quickrun.csv,psycho,Lentiform Loewenfeld,3.3.14,yes,바다,natural,similar-environmental,0,None,,,,s,None,n,0.0214000465348362,,,,1121.1820000316948,0.0214000465348362,12.28969998192042,2,psycho,1024,2,48000,-16,experiment,999,odd,배,artifactual,,9382.062599994242,6121.051199967042,6120.947499992326,,,4176.728500053287,,,8652.012199978344,4998.678699950688,9511.677799979225,9511.796799954029,6120.419800048694,8866.298499982804,,9498.70470003225,8638.729400001466,Extended template,0,0.0706000719219446,3,yes,1024
0,0,0.0221000518649816,0.0221000518649816,white,yes,psycho,psycho,psycho,0,uniform,0,undefined,0,n,1,0,3,1,1,0,0,0,0,,3,0,3,3,0,3,1,3,3,Tue Dec  5 17:25:55 2023,A template containing a practice and an experimental phase,yes,언어학과심리실험_B조_기말과제용심리실험.osexp,C:\Users\caphi\Downloads,no,mono,no,18,no,black,no,no,768,psycho,0,0,0,C:\Users\caphi\Downloads\quickrun.csv,psycho,Lentiform Loewenfeld,3.3.14,no,보트,artifactual,same phoneme,0,None,,a,,s,None,n,0.0221000518649816,,132.33819999732077,,1121.1820000316948,0.0221000518649816,581.7983000306413,2,psycho,1024,2,48000,-16,experiment,999,odd,보름달,natural,,10565.967799979262,9784.990899963304,9784.88729998935,,9651.481000008062,4176.728500053287,9784.411399974488,,9832.339699962176,4998.678699950688,11264.39649995882,11264.516900060698,6120.419800048694,10048.888999968767,,10681.916399975307,9822.27350003086,Extended template,0,0.0221000518649816,1,yes,1024
0,0,0.0214500469155609,0.0214500469155609,white,yes,psycho,psycho,psycho,0,uniform,0,undefined,0,n,0,0,4,1,1,0,0,0,0,,4,0,4,4,0,4,1,4,4,Tue Dec  5 17:25:55 2023,A template containing a practice and an experimental phase,yes,언어학과심리실험_B조_기말과제용심리실험.osexp,C:\Users\caphi\Downloads,no,mono,no,18,no,black,no,no,768,psycho,1,1,0,C:\Users\caphi\Downloads\quickrun.csv,psycho,Lentiform Loewenfeld,3.3.14,no,태양,natural,same phoneme,0,None,,a,,s,None,a,0.0208000419661402,,132.33819999732077,,1121.1820000316948,0.0208000419661402,551.0138999670744,2,psycho,1024,2,48000,-16,experiment,999,odd,태풍,natural,,12116.022399975918,9784.990899963304,9784.88729998935,,9651.481000008062,4176.728500053287,9784.411399974488,,11384.67339996714,4998.678699950688,12783.87909999583,12784.000599989668,6120.419800048694,11598.978900001384,,12232.233299990185,11370.642900001258,Extended template,0,0.0429000938311219,2,yes,1024
0,0,0.0230667258923252,0.0230667258923252,white,yes,psycho,psycho,psycho,0,uniform,0,undefined,0,a,1,0,5,1,1,0,0,0,0,,5,0,5,5,0,5,1,5,5,Tue Dec  5 17:25:55 2023,A template containing a practice and an experimental phase,yes,언어학과심리실험_B조_기말과제용심리실험.osexp,C:\Users\caphi\Downloads,no,mono,no,18,no,black,no,no,768,psycho,2,2,0,C:\Users\caphi\Downloads\quickrun.csv,psycho,Lentiform Loewenfeld,3.3.14,no,영화,artifactual,similar-environmental,0,None,,a,,s,None,a,0.0263000838458538,,132.33819999732077,,1121.1820000316948,0.0263000838458538,569.2707999842241,2,psycho,1024,2,48000,-16,experiment,999,odd,드라마,artifactual,,13649.556400021538,9784.990899963304,9784.88729998935,,9651.481000008062,4176.728500053287,9784.411399974488,,12918.456400046123,4998.678699950688,14336.026499979198,14336.17659995798,6120.419800048694,13132.737300009469,,13765.871200012043,12899.949399987236,Extended template,0,0.0692001776769757,3,yes,1024
0,0,0.0228500284720212,0.0228500284720212,white,yes,psycho,psycho,psycho,0,uniform,0,undefined,0,a,1,0,6,1,1,0,0,0,0,,6,0,6,6,0,6,1,6,6,Tue Dec  5 17:25:55 2023,A template containing a practice and an experimental phase,yes,언어학과심리실험_B조_기말과제용심리실험.osexp,C:\Users\caphi\Downloads,no,mono,no,18,no,black,no,no,768,psycho,3,3,0,C:\Users\caphi\Downloads\quickrun.csv,psycho,Lentiform Loewenfeld,3.3.14,no,구름,natural,same phoneme,0,None,,a,,s,None,a,0.0221999362111091,,132.33819999732077,,1121.1820000316948,0.0221999362111091,668.6493000015616,2,psycho,1024,2,48000,-16,experiment,999,odd,구두,artifactual,,15182.169600040652,9784.990899963304,9784.88729998935,,9651.481000008062,4176.728500053287,9784.411399974488,,14452.175699989311,4998.678699950688,15968.191700056195,15968.328100047074,6120.419800048694,14665.86319997441,,15298.686200054362,14432.234399951994,Extended template,0,0.0914001138880848,4,yes,1024
0,0,0.0234200386330485,0.0234200386330485,white,yes,psycho,psycho,psycho,0,uniform,0,undefined,0,a,1,0,7,1,1,0,0,0,0,,7,0,7,7,0,7,1,7,7,Tue Dec  5 17:25:55 2023,A template containing a practice and an experimental phase,yes,언어학과심리실험_B조_기말과제용심리실험.osexp,C:\Users\caphi\Downloads,no,mono,no,18,no,black,no,no,768,psycho,4,4,0,C:\Users\caphi\Downloads\quickrun.csv,psycho,Lentiform Loewenfeld,3.3.14,no,해변,natural,similar-environmental,0,None,,a,,s,None,a,0.0257000792771577,,132.33819999732077,,1121.1820000316948,0.0257000792771577,1210.9033999731764,2,psycho,1024,2,48000,-16,experiment,999,odd,파라솔,artifactual,,16816.20150001254,9784.990899963304,9784.88729998935,,9651.481000008062,4176.728500053287,9784.411399974488,,16085.726400022397,4998.678699950688,18144.86869995017,18145.04279999528,6120.419800048694,16300.174499978311,,16933.103800052777,16072.216999949887,Extended template,0,0.1171001931652426,5,yes,1024
0,0,0.0231667072512209,0.0231667072512209,white,yes,psycho,psycho,psycho,0,uniform,0,undefined,0,x,0,0,8,1,1,0,0,0,0,,8,0,8,8,0,8,1,8,8,Tue Dec  5 17:25:55 2023,A template containing a practice and an experimental phase,yes,언어학과심리실험_B조_기말과제용심리실험.osexp,C:\Users\caphi\Downloads,no,mono,no,18,no,black,no,no,768,psycho,5,5,0,C:\Users\caphi\Downloads\quickrun.csv,psycho,Lentiform Loewenfeld,3.3.14,no,시계,artifactual,non-word,0,None,,a,,s,None,a,0.0219000503420829,,132.33819999732077,,1121.1820000316948,0.0219000503420829,1371.5130999917164,2,psycho,1024,2,48000,-16,experiment,999,odd,책솜,non-word,,18999.28340001497,9784.990899963304,9784.88729998935,,9651.481000008062,4176.728500053287,9784.411399974488,,18268.72719998937,4998.678699950688,20488.576099975035,20488.724500057288,6120.419800048694,18482.68929996993,,19116.398700047284,18247.34310002532,Extended template,0,0.1390002435073256,6,yes,1024
0,0,0.023742888255843,0.023742888255843,white,yes,psycho,psycho,psycho,0,uniform,0,undefined,0,x,0,0,9,1,1,0,0,0,0,,9,0,9,9,0,9,1,9,9,Tue Dec  5 17:25:55 2023,A template containing a practice and an experimental phase,yes,언어학과심리실험_B조_기말과제용심리실험.osexp,C:\Users\caphi\Downloads,no,mono,no,18,no,black,no,no,768,psycho,6,6,0,C:\Users\caphi\Downloads\quickrun.csv,psycho,Lentiform Loewenfeld,3.3.14,no,절벽,natural,non-word,0,None,,a,,s,None,a,0.027199974283576,,132.33819999732077,,1121.1820000316948,0.027199974283576,1086.159099941142,2,psycho,1024,2,48000,-16,experiment,999,odd,물로프,non-word,,21333.406200050376,9784.990899963304,9784.88729998935,,9651.481000008062,4176.728500053287,9784.411399974488,,20602.456100052223,4998.678699950688,22536.466300021857,22536.652600043453,6120.419800048694,20816.163299954496,,21449.476700043306,20588.10930000618,Extended template,0,0.1662002177909016,7,yes,1024
0,0,0.02358753408771,0.02358753408771,white,yes,psycho,psycho,psycho,0,uniform,0,undefined,0,n,1,0,10,1,1,0,0,0,0,,10,0,10,10,0,10,1,10,10,Tue Dec  5 17:25:55 2023,A template containing a practice and an experimental phase,yes,언어학과심리실험_B조_기말과제용심리실험.osexp,C:\Users\caphi\Downloads,no,mono,no,18,no,black,no,no,768,psycho,7,7,0,C:\Users\caphi\Downloads\quickrun.csv,psycho,Lentiform Loewenfeld,3.3.14,no,해마,natural,same phoneme,0,None,,a,,s,None,n,0.022500054910779,,132.33819999732077,,1121.1820000316948,0.022500054910779,556.0786999994889,2,psycho,1024,2,48000,-16,experiment,999,odd,해질녘,natural,,23382.690500002354,9784.990899963304,9784.88729998935,,9651.481000008062,4176.728500053287,9784.411399974488,,22651.58419997897,4998.678699950688,24056.71939998865,24056.877400027588,6120.419800048694,22866.54830002226,,23499.87549998332,22641.040300019085,Extended template,0,0.1887002727016806,8,yes,1024
0,0,0.0235111478509174,0.0235111478509174,white,yes,psycho,psycho,psycho,0,uniform,0,undefined,0,n,1,0,11,1,1,0,0,0,0,,11,0,11,11,0,11,1,11,11,Tue Dec  5 17:25:55 2023,A template containing a practice and an experimental phase,yes,언어학과심리실험_B조_기말과제용심리실험.osexp,C:\Users\caphi\Downloads,no,mono,no,18,no,black,no,no,768,psycho,8,8,0,C:\Users\caphi\Downloads\quickrun.csv,psycho,Lentiform Loewenfeld,3.3.14,no,등산로,artifactual,similar-environmental,0,None,,a,,s,None,n,0.0229000579565763,,132.33819999732077,,1121.1820000316948,0.0229000579565763,853.9868000661954,2,psycho,1024,2,48000,-16,experiment,999,odd,산,natural,,24899.456599960104,9784.990899963304,9784.88729998935,,9651.481000008062,4176.728500053287,9784.411399974488,,24168.42869995162,4998.678699950688,25872.36519996077,25872.52690002788,6120.419800048694,24382.703299983405,,25017.611799994484,24153.244100045413,Extended template,0,0.211600330658257,9,yes,1024
0,0,0.0247600255534052,0.0247600255534052,white,yes,psycho,psycho,psycho,0,uniform,0,undefined,0,a,1,0,12,1,1,0,0,0,0,,12,0,12,12,0,12,1,12,12,Tue Dec  5 17:25:55 2023,A template containing a practice and an experimental phase,yes,언어학과심리실험_B조_기말과제용심리실험.osexp,C:\Users\caphi\Downloads,no,mono,no,18,no,black,no,no,768,psycho,9,9,0,C:\Users\caphi\Downloads\quickrun.csv,psycho,Lentiform Loewenfeld,3.3.14,no,국가,artifactual,inclusive,0,None,,a,,s,None,a,0.0359999248757958,,132.33819999732077,,1121.1820000316948,0.0359999248757958,574.7497999109328,2,psycho,1024,2,48000,-16,experiment,999,odd,대한민국,artifactual,,26733.05280006025,9784.990899963304,9784.88729998935,,9651.481000008062,4176.728500053287,9784.411399974488,,26001.940899994224,4998.678699950688,27424.906600033864,27425.11329997797,6120.419800048694,26216.05659998022,,26849.461100064214,25981.121000018906,Extended template,0,0.2476002555340528,10,yes,1024
0,0,0.0251454766839742,0.0251454766839742,white,yes,psycho,psycho,psycho,0,uniform,0,undefined,0,n,1,0,13,1,1,0,0,0,0,,13,0,13,13,0,13,1,13,13,Tue Dec  5 17:25:55 2023,A template containing a practice and an experimental phase,yes,언어학과심리실험_B조_기말과제용심리실험.osexp,C:\Users\caphi\Downloads,no,mono,no,18,no,black,no,no,768,psycho,10,10,0,C:\Users\caphi\Downloads\quickrun.csv,psycho,Lentiform Loewenfeld,3.3.14,no,과일,natural,inclusive,0,None,,a,,s,None,n,0.028999987989664,,132.33819999732077,,1121.1820000316948,0.028999987989664,648.3478000154719,2,psycho,1024,2,48000,-16,experiment,999,odd,사과,natural,,28283.50210003555,9784.990899963304,9784.88729998935,,9651.481000008062,4176.728500053287,9784.411399974488,,27552.95220005792,4998.678699950688,29048.74090000521,29048.927400028333,6120.419800048694,27766.40830002725,,28399.43989994936,27530.72819998488,Extended template,0,0.2766002435237169,11,yes,1024
0,0,0.025200026963527,0.025200026963527,white,yes,psycho,psycho,psycho,0,uniform,0,undefined,0,n,1,0,14,1,1,0,0,0,0,,14,0,14,14,0,14,1,14,14,Tue Dec  5 17:25:55 2023,A template containing a practice and an experimental phase,yes,언어학과심리실험_B조_기말과제용심리실험.osexp,C:\Users\caphi\Downloads,no,mono,no,18,no,black,no,no,768,psycho,11,11,0,C:\Users\caphi\Downloads\quickrun.csv,psycho,Lentiform Loewenfeld,3.3.14,no,바다,natural,same phoneme,0,None,,a,,s,None,n,0.0258000800386071,,132.33819999732077,,1121.1820000316948,0.0258000800386071,838.5522000025958,2,psycho,1024,2,48000,-16,experiment,999,odd,바퀴벌레,natural,,29899.666900048032,9784.990899963304,9784.88729998935,,9651.481000008062,4176.728500053287,9784.411399974488,,29169.95939996559,4998.678699950688,30856.572499964383,30856.785999960262,6120.419800048694,29382.63500004541,,30017.224799958058,29152.82560000196,Extended template,0,0.302400323562324,12,yes,1024
0,0,0.0249307889204758,0.0249307889204758,white,yes,psycho,psycho,psycho,0,uniform,0,undefined,0,n,1,0,15,1,1,0,0,0,0,,15,0,15,15,0,15,1,15,15,Tue Dec  5 17:25:55 2023,A template containing a practice and an experimental phase,yes,언어학과심리실험_B조_기말과제용심리실험.osexp,C:\Users\caphi\Downloads,no,mono,no,18,no,black,no,no,768,psycho,12,12,0,C:\Users\caphi\Downloads\quickrun.csv,psycho,Lentiform Loewenfeld,3.3.14,no,언덕,natural,no-correlation,0,None,,a,,s,None,n,0.0216999324038624,,132.33819999732077,,1121.1820000316948,0.0216999324038624,471.99829993769526,2,psycho,1024,2,48000,-16,experiment,999,odd,고양이,natural,,31699.955299962312,9784.990899963304,9784.88729998935,,9651.481000008062,4176.728500053287,9784.411399974488,,30969.52030004468,4998.678699950688,32289.038600050844,32289.218900026757,6120.419800048694,31183.717499952763,,31816.339900018647,30959.48399999179,Extended template,0,0.3241002559661865,13,yes,1024
0,0,0.0247643079741724,0.0247643079741724,white,yes,psycho,psycho,psycho,0,uniform,0,undefined,0,n,1,0,16,1,1,0,0,0,0,,16,0,16,16,0,16,1,16,16,Tue Dec  5 17:25:55 2023,A template containing a practice and an experimental phase,yes,언어학과심리실험_B조_기말과제용심리실험.osexp,C:\Users\caphi\Downloads,no,mono,no,18,no,black,no,no,768,psycho,13,13,0,C:\Users\caphi\Downloads\quickrun.csv,psycho,Lentiform Loewenfeld,3.3.14,no,의자,artifactual,no-correlation,0,None,,a,,s,None,n,0.0226000556722283,,132.33819999732077,,1121.1820000316948,0.0226000556722283,1157.3456999612972,2,psycho,1024,2,48000,-16,experiment,999,odd,행성,natural,,33133.50810005795,9784.990899963304,9784.88729998935,,9651.481000008062,4176.728500053287,9784.411399974488,,32402.369000017643,4998.678699950688,34408.937499974854,34409.13519996684,6120.419800048694,32616.420899983492,,33250.84039999638,32386.775800026957,Extended template,0,0.3467003116384148,14,yes,1024
0,0,0.0245666907479365,0.0245666907479365,white,yes,psycho,psycho,psycho,0,uniform,0,undefined,0,n,1,0,17,1,1,0,0,0,0,,17,0,17,17,0,17,1,17,17,Tue Dec  5 17:25:55 2023,A template containing a practice and an experimental phase,yes,언어학과심리실험_B조_기말과제용심리실험.osexp,C:\Users\caphi\Downloads,no,mono,no,18,no,black,no,no,768,psycho,14,14,0,C:\Users\caphi\Downloads\quickrun.csv,psycho,Lentiform Loewenfeld,3.3.14,no,악어,natural,similar-environmental,0,None,,a,,s,None,n,0.0218000495806336,,132.33819999732077,,1121.1820000316948,0.0218000495806336,553.0582999344915,2,psycho,1024,2,48000,-16,experiment,999,odd,늪,natural,,35266.30430005025,9784.990899963304,9784.88729998935,,9651.481000008062,4176.728500053287,9784.411399974488,,34535.68730002735,4998.678699950688,35936.99439999182,35937.18300003093,6120.419800048694,34750.0242999522,,35383.17100005224,34516.11690002028,Extended template,0,0.3685003612190485,15,yes,1024
0,0,0.0244437760557048,0.0244437760557048,white,yes,psycho,psycho,psycho,0,uniform,0,undefined,0,n,1,0,18,1,1,0,0,0,0,,18,0,18,18,0,18,1,18,18,Tue Dec  5 17:25:55 2023,A template containing a practice and an experimental phase,yes,언어학과심리실험_B조_기말과제용심리실험.osexp,C:\Users\caphi\Downloads,no,mono,no,18,no,black,no,no,768,psycho,15,15,0,C:\Users\caphi\Downloads\quickrun.csv,psycho,Lentiform Loewenfeld,3.3.14,no,물고기,natural,inclusive,0,None,,a,,s,None,n,0.0226000556722283,,132.33819999732077,,1121.1820000316948,0.0226000556722283,555.5359999416396,2,psycho,1024,2,48000,-16,experiment,999,odd,연어,natural,,36782.76480000932,9784.990899963304,9784.88729998935,,9651.481000008062,4176.728500053287,9784.411399974488,,36052.13169998024,4998.678699950688,37456.68489998207,37456.88359998167,6120.419800048694,36266.05670002755,,36900.30730003491,36042.49909997452,Extended template,0,0.3911004168912768,16,yes,1024
0,0,0.0243117854766109,0.0243117854766109,white,yes,psycho,psycho,psycho,0,uniform,0,undefined,0,n,1,0,19,1,1,0,0,0,0,,19,0,19,19,0,19,1,19,19,Tue Dec  5 17:25:55 2023,A template containing a practice and an experimental phase,yes,언어학과심리실험_B조_기말과제용심리실험.osexp,C:\Users\caphi\Downloads,no,mono,no,18,no,black,no,no,768,psycho,16,16,0,C:\Users\caphi\Downloads\quickrun.csv,psycho,Lentiform Loewenfeld,3.3.14,no,꽃,natural,inclusive,0,None,,a,,s,None,n,0.0221999362111091,,132.33819999732077,,1121.1820000316948,0.0221999362111091,518.6899999389425,2,psycho,1024,2,48000,-16,experiment,999,odd,해바라기,natural,,38317.05209997017,9784.990899963304,9784.88729998935,,9651.481000008062,4176.728500053287,9784.411399974488,,37587.26169995498,4998.678699950688,38953.11660005245,38953.32069997676,6120.419800048694,37799.7417000588,,38433.59200004488,37563.14900005236,Extended template,0,0.413300353102386,17,yes,1024
0,0,0.0241611333977844,0.0241611333977844,white,yes,psycho,psycho,psycho,0,uniform,0,undefined,0,a,1,0,20,1,1,0,0,0,0,,20,0,20,20,0,20,1,20,20,Tue Dec  5 17:25:55 2023,A template containing a practice and an experimental phase,yes,언어학과심리실험_B조_기말과제용심리실험.osexp,C:\Users\caphi\Downloads,no,mono,no,18,no,black,no,no,768,psycho,17,17,0,C:\Users\caphi\Downloads\quickrun.csv,psycho,Lentiform Loewenfeld,3.3.14,no,교통,artifactual,inclusive,0,None,,a,,s,None,a,0.0216000480577349,,132.33819999732077,,1121.1820000316948,0.0216000480577349,755.7502000126988,2,psycho,1024,2,48000,-16,experiment,999,odd,자동차,artifactual,,39799.988499959,9784.990899963304,9784.88729998935,,9651.481000008062,4176.728500053287,9784.411399974488,,39068.62220005132,4998.678699950688,40673.32499998156,40673.5359999584,6120.419800048694,39282.39309997298,,39916.717599960975,39058.40960005298,Extended template,0,0.4349004011601209,18,yes,1024
0,0,0.024189492442498,0.024189492442498,white,yes,psycho,psycho,psycho,0,uniform,0,undefined,0,x,1,0,21,1,1,0,0,0,0,,21,0,21,21,0,21,1,21,21,Tue Dec  5 17:25:55 2023,A template containing a practice and an experimental phase,yes,언어학과심리실험_B조_기말과제용심리실험.osexp,C:\Users\caphi\Downloads,no,mono,no,18,no,black,no,no,768,psycho,18,18,0,C:\Users\caphi\Downloads\quickrun.csv,psycho,Lentiform Loewenfeld,3.3.14,no,벨트,artifactual,non-word,0,None,,a,,s,None,x,0.0246999552473425,,132.33819999732077,,1121.1820000316948,0.0246999552473425,1126.5984000638127,2,psycho,1024,2,48000,-16,experiment,999,odd,진웬,non-word,,41532.92180004064,9784.990899963304,9784.88729998935,,9651.481000008062,4176.728500053287,9784.411399974488,,40803.57099999674,4998.678699950688,42776.74790006131,42777.01469999738,6120.419800048694,41017.33800000511,,41649.30459996685,40778.83460000157,Extended template,0,0.4596003564074635,19,yes,1024
0,0,0.0242750160396099,0.0242750160396099,white,yes,psycho,psycho,psycho,0,uniform,0,undefined,0,n,1,0,22,1,1,0,0,0,0,,22,0,22,22,0,22,1,22,22,Tue Dec  5 17:25:55 2023,A template containing a practice and an experimental phase,yes,언어학과심리실험_B조_기말과제용심리실험.osexp,C:\Users\caphi\Downloads,no,mono,no,18,no,black,no,no,768,psycho,19,19,0,C:\Users\caphi\Downloads\quickrun.csv,psycho,Lentiform Loewenfeld,3.3.14,no,다리,artifactual,similar-environmental,0,None,,a,,s,None,n,0.0258999643847346,,132.33819999732077,,1121.1820000316948,0.0258999643847346,1034.004500019364,2,psycho,1024,2,48000,-16,experiment,999,odd,강,natural,,43633.40799999423,9784.990899963304,9784.88729998935,,9651.481000008062,4176.728500053287,9784.411399974488,,42903.829099959694,4998.678699950688,44784.90430000238,44785.16690002289,6120.419800048694,43116.46950000432,,43749.99859998934,42880.5109000532,Extended template,0,0.4855003207921982,20,yes,1024
0,0,0.0241190649657731,0.0241190649657731,white,yes,psycho,psycho,psycho,0,uniform,0,undefined,0,a,1,0,23,1,1,0,0,0,0,,23,0,23,23,0,23,1,23,23,Tue Dec  5 17:25:55 2023,A template containing a practice and an experimental phase,yes,언어학과심리실험_B조_기말과제용심리실험.osexp,C:\Users\caphi\Downloads,no,mono,no,18,no,black,no,no,768,psycho,20,20,0,C:\Users\caphi\Downloads\quickrun.csv,psycho,Lentiform Loewenfeld,3.3.14,no,학적,artifactual,same phoneme,0,None,,a,,s,None,a,0.0210000434890389,,132.33819999732077,,1121.1820000316948,0.0210000434890389,578.4639000194147,2,psycho,1024,2,48000,-16,experiment,999,odd,학술,artifactual,,45633.04710004013,9784.990899963304,9784.88729998935,,9651.481000008062,4176.728500053287,9784.411399974488,,44902.7810000116,4998.678699950688,46329.35040001757,46329.58050002344,6120.419800048694,45116.9932000339,,45750.02629996743,44884.18940000702,Extended template,0,0.5065003642812371,21,yes,1024
0,0,0.0240500190887938,0.0240500190887938,white,yes,psycho,psycho,psycho,0,uniform,0,undefined,0,a,1,0,24,1,1,0,0,0,0,,24,0,24,24,0,24,1,24,24,Tue Dec  5 17:25:55 2023,A template containing a practice and an experimental phase,yes,언어학과심리실험_B조_기말과제용심리실험.osexp,C:\Users\caphi\Downloads,no,mono,no,18,no,black,no,no,768,psycho,21,21,0,C:\Users\caphi\Downloads\quickrun.csv,psycho,Lentiform Loewenfeld,3.3.14,no,카메라,artifactual,inclusive,0,None,,a,,s,None,a,0.0226000556722283,,132.33819999732077,,1121.1820000316948,0.0226000556722283,2196.6616000281647,2,psycho,1024,2,48000,-16,experiment,999,odd,렌즈,artifactual,,47183.32009995356,9784.990899963304,9784.88729998935,,9651.481000008062,4176.728500053287,9784.411399974488,,46454.48600000236,4998.678699950688,49497.62969999574,49497.89860006422,6120.419800048694,46667.15660004411,,47300.05510000046,46428.7253000075,Extended template,0,0.5291004199534655,22,yes,1024
0,0,0.0241043693993402,0.0241043693993402,white,yes,psycho,psycho,psycho,0,uniform,0,undefined,0,n,1,0,25,1,1,0,0,0,0,,25,0,25,25,0,25,1,25,25,Tue Dec  5 17:25:55 2023,A template containing a practice and an experimental phase,yes,언어학과심리실험_B조_기말과제용심리실험.osexp,C:\Users\caphi\Downloads,no,mono,no,18,no,black,no,no,768,psycho,22,22,0,C:\Users\caphi\Downloads\quickrun.csv,psycho,Lentiform Loewenfeld,3.3.14,no,호수,natural,same phoneme,0,None,,a,,s,None,n,0.0253000762313604,,132.33819999732077,,1121.1820000316948,0.0253000762313604,573.6730999778956,2,psycho,1024,2,48000,-16,experiment,999,odd,호랑이,natural,,50350.47229996417,9784.990899963304,9784.88729998935,,9651.481000008062,4176.728500053287,9784.411399974488,,49619.51740004588,4998.678699950688,51041.04839998763,51041.310200002044,6120.419800048694,49833.26890005264,,50466.55090001877,49602.01290005352,Extended template,0,0.5544004961848259,23,yes,1024
0,0,0.0240916900414352,0.0240916900414352,white,yes,psycho,psycho,psycho,0,uniform,0,undefined,0,n,1,0,26,1,1,0,0,0,0,,26,0,26,26,0,26,1,26,26,Tue Dec  5 17:25:55 2023,A template containing a practice and an experimental phase,yes,언어학과심리실험_B조_기말과제용심리실험.osexp,C:\Users\caphi\Downloads,no,mono,no,18,no,black,no,no,768,psycho,23,23,0,C:\Users\caphi\Downloads\quickrun.csv,psycho,Lentiform Loewenfeld,3.3.14,no,멜블옴,non-word,non-word,0,None,,a,,s,None,n,0.0238000648096203,,132.33819999732077,,1121.1820000316948,0.0238000648096203,1120.0411999598143,2,psycho,1024,2,48000,-16,experiment,999,odd,폭포,natural,,51883.99780006148,9784.990899963304,9784.88729998935,,9651.481000008062,4176.728500053287,9784.411399974488,,51153.7824999541,4998.678699950688,53121.00309995003,53121.243600035086,6120.419800048694,51367.11930006277,,52000.13739999849,51143.56580004096,Extended template,0,0.5782005609944463,24,yes,1024
0,0,0.0249800225719809,0.0249800225719809,white,yes,psycho,psycho,psycho,0,uniform,0,undefined,0,a,1,0,27,1,1,0,0,0,0,,27,0,27,27,0,27,1,27,27,Tue Dec  5 17:25:55 2023,A template containing a practice and an experimental phase,yes,언어학과심리실험_B조_기말과제용심리실험.osexp,C:\Users\caphi\Downloads,no,mono,no,18,no,black,no,no,768,psycho,24,24,0,C:\Users\caphi\Downloads\quickrun.csv,psycho,Lentiform Loewenfeld,3.3.14,no,기계,artifactual,inclusive,0,None,,a,,s,None,a,0.0463000033050775,,132.33819999732077,,1121.1820000316948,0.0463000033050775,532.3434000601992,2,psycho,1024,2,48000,-16,experiment,999,odd,컴퓨터,artifactual,,53983.492900035344,9784.990899963304,9784.88729998935,,9651.481000008062,4176.728500053287,9784.411399974488,,53252.6667000493,4998.678699950688,54633.3112999564,54633.65089998115,6120.419800048694,53465.96619999036,,54099.96729996056,53221.54379996937,Extended template,0,0.6245005642995238,25,yes,1024
0,0,0.0248923270891492,0.0248923270891492,white,yes,psycho,psycho,psycho,0,uniform,0,undefined,0,a,1,0,28,1,1,0,0,0,0,,28,0,28,28,0,28,1,28,28,Tue Dec  5 17:25:55 2023,A template containing a practice and an experimental phase,yes,언어학과심리실험_B조_기말과제용심리실험.osexp,C:\Users\caphi\Downloads,no,mono,no,18,no,black,no,no,768,psycho,25,25,0,C:\Users\caphi\Downloads\quickrun.csv,psycho,Lentiform Loewenfeld,3.3.14,no,산,natural,similar-environmental,0,None,,a,,s,None,a,0.0226999400183558,,132.33819999732077,,1121.1820000316948,0.0226999400183558,696.9612999819219,2,psycho,1024,2,48000,-16,experiment,999,odd,오두막,artifactual,,55483.551100012846,9784.990899963304,9784.88729998935,,9651.481000008062,4176.728500053287,9784.411399974488,,54752.89909995627,4998.678699950688,56297.88570001256,56298.17029996775,6120.419800048694,54966.73390001524,,55600.10789998341,54736.44360003527,Extended template,0,0.6472005043178797,26,yes,1024
0,0,0.0247481641256146,0.0247481641256146,white,yes,psycho,psycho,psycho,0,uniform,0,undefined,0,n,1,0,29,1,1,0,0,0,0,,29,0,29,29,0,29,1,29,29,Tue Dec  5 17:25:55 2023,A template containing a practice and an experimental phase,yes,언어학과심리실험_B조_기말과제용심리실험.osexp,C:\Users\caphi\Downloads,no,mono,no,18,no,black,no,no,768,psycho,26,26,0,C:\Users\caphi\Downloads\quickrun.csv,psycho,Lentiform Loewenfeld,3.3.14,no,모래,natural,similar-environmental,0,None,,a,,s,None,n,0.0209999270737171,,132.33819999732077,,1121.1820000316948,0.0209999270737171,568.9665999962017,2,psycho,1024,2,48000,-16,experiment,999,odd,자갈,natural,,57150.83880000748,9784.990899963304,9784.88729998935,,9651.481000008062,4176.728500053287,9784.411399974488,,56419.28749997169,4998.678699950688,57841.464500059374,57841.72460006084,6120.419800048694,56633.13480000943,,57271.484400029294,56401.09129995108,Extended template,0,0.6682004313915968,27,yes,1024
0,0,0.0246357314089047,0.0246357314089047,white,yes,psycho,psycho,psycho,0,uniform,0,undefined,0,a,1,0,30,1,1,0,0,0,0,,30,0,30,30,0,30,1,30,30,Tue Dec  5 17:25:55 2023,A template containing a practice and an experimental phase,yes,언어학과심리실험_B조_기말과제용심리실험.osexp,C:\Users\caphi\Downloads,no,mono,no,18,no,black,no,no,768,psycho,27,27,0,C:\Users\caphi\Downloads\quickrun.csv,psycho,Lentiform Loewenfeld,3.3.14,no,계곡,natural,no-correlation,0,None,,a,,s,None,a,0.0216000480577349,,132.33819999732077,,1121.1820000316948,0.0216000480577349,1263.502400019206,2,psycho,1024,2,48000,-16,experiment,999,odd,화장실,artifactual,,58699.95369995013,9784.990899963304,9784.88729998935,,9651.481000008062,4176.728500053287,9784.411399974488,,57969.45570001844,4998.678699950688,60081.3476999756,60081.61780005321,6120.419800048694,58182.84460005816,,58816.95040001068,57945.3816000605,Extended template,0,0.6898004794493318,28,yes,1024
0,0,0.0245172594641817,0.0245172594641817,white,yes,psycho,psycho,psycho,0,uniform,0,undefined,0,a,0,0,31,1,1,0,0,0,0,,31,0,31,31,0,31,1,31,31,Tue Dec  5 17:25:55 2023,A template containing a practice and an experimental phase,yes,언어학과심리실험_B조_기말과제용심리실험.osexp,C:\Users\caphi\Downloads,no,mono,no,18,no,black,no,no,768,psycho,28,28,0,C:\Users\caphi\Downloads\quickrun.csv,psycho,Lentiform Loewenfeld,3.3.14,no,안음풍,non-word,non-word,0,None,,a,,s,None,n,0.0212000450119376,,132.33819999732077,,1121.1820000316948,0.0212000450119376,542.2860999824479,2,psycho,1024,2,48000,-16,experiment,999,odd,의자,artifactual,,60933.64389997441,9784.990899963304,9784.88729998935,,9651.481000008062,4176.728500053287,9784.411399974488,,60203.324700007215,4998.678699950688,61593.69000000879,61593.95720006432,6120.419800048694,60416.44339996856,,61050.39770004805,60184.52240002807,Extended template,0,0.7110005244612694,29,yes,1024
0,0,0.0244133484860261,0.0244133484860261,white,yes,psycho,psycho,psycho,0,uniform,0,undefined,0,a,1,0,32,1,1,0,0,0,0,,32,0,32,32,0,32,1,32,32,Tue Dec  5 17:25:55 2023,A template containing a practice and an experimental phase,yes,언어학과심리실험_B조_기말과제용심리실험.osexp,C:\Users\caphi\Downloads,no,mono,no,18,no,black,no,no,768,psycho,29,29,0,C:\Users\caphi\Downloads\quickrun.csv,psycho,Lentiform Loewenfeld,3.3.14,no,컴퓨터,artifactual,similar-environmental,0,None,,a,,s,None,a,0.0213999301195144,,132.33819999732077,,1121.1820000316948,0.0213999301195144,674.7369000222534,2,psycho,1024,2,48000,-16,experiment,999,odd,키보드,artifactual,,62450.1855999697,9784.990899963304,9784.88729998935,,9651.481000008062,4176.728500053287,9784.411399974488,,61719.20519997366,4998.678699950688,63242.18020006083,63242.46009998024,6120.419800048694,61934.05929999426,,62566.44660001621,61703.8426999934,Extended template,0,0.7324004545807838,30,yes,1024
0,0,0.0244677554996263,0.0244677554996263,white,yes,psycho,psycho,psycho,0,uniform,0,undefined,0,n,1,0,33,1,1,0,0,0,0,,33,0,33,33,0,33,1,33,33,Tue Dec  5 17:25:55 2023,A template containing a practice and an experimental phase,yes,언어학과심리실험_B조_기말과제용심리실험.osexp,C:\Users\caphi\Downloads,no,mono,no,18,no,black,no,no,768,psycho,30,30,0,C:\Users\caphi\Downloads\quickrun.csv,psycho,Lentiform Loewenfeld,3.3.14,no,전등,artifactual,no-correlation,0,None,,a,,s,None,n,0.0260999659076333,,132.33819999732077,,1121.1820000316948,0.0260999659076333,584.1521000256762,2,psycho,1024,2,48000,-16,experiment,999,odd,소,natural,,64100.470799952745,9784.990899963304,9784.88729998935,,9651.481000008062,4176.728500053287,9784.411399974488,,63369.37850003597,4998.678699950688,64801.51460005436,64801.88020004425,6120.419800048694,63584.05930001754,,64216.41090000048,63357.5414000079,Extended template,0,0.7585004204884171,31,yes,1024
0,0,0.0243750146182719,0.0243750146182719,white,yes,psycho,psycho,psycho,0,uniform,0,undefined,0,a,1,0,34,1,1,0,0,0,0,,34,0,34,34,0,34,1,34,34,Tue Dec  5 17:25:55 2023,A template containing a practice and an experimental phase,yes,언어학과심리실험_B조_기말과제용심리실험.osexp,C:\Users\caphi\Downloads,no,mono,no,18,no,black,no,no,768,psycho,31,31,0,C:\Users\caphi\Downloads\quickrun.csv,psycho,Lentiform Loewenfeld,3.3.14,no,바람,natural,similar-environmental,0,None,,a,,s,None,a,0.0215000472962856,,132.33819999732077,,1121.1820000316948,0.0215000472962856,1898.5049999319017,2,psycho,1024,2,48000,-16,experiment,999,odd,창문,artifactual,,65649.94769997429,9784.990899963304,9784.88729998935,,9651.481000008062,4176.728500053287,9784.411399974488,,64919.76550000254,4998.678699950688,67665.51249998156,67665.78749998007,6120.419800048694,65133.35550006013,,65766.22400002088,64901.33709996008,Extended template,0,0.7800004677847028,32,yes,1024
0,0,0.0244242555433602,0.0244242555433602,white,yes,psycho,psycho,psycho,0,uniform,0,undefined,0,a,0,0,35,1,1,0,0,0,0,,35,0,35,35,0,35,1,35,35,Tue Dec  5 17:25:55 2023,A template containing a practice and an experimental phase,yes,언어학과심리실험_B조_기말과제용심리실험.osexp,C:\Users\caphi\Downloads,no,mono,no,18,no,black,no,no,768,psycho,32,32,0,C:\Users\caphi\Downloads\quickrun.csv,psycho,Lentiform Loewenfeld,3.3.14,no,호수,natural,no-correlation,0,None,,a,,s,None,n,0.0259999651461839,,132.33819999732077,,1121.1820000316948,0.0259999651461839,598.6241999780759,2,psycho,1024,2,48000,-16,experiment,999,odd,화장실,artifactual,,68516.83510001749,9784.990899963304,9784.88729998935,,9651.481000008062,4176.728500053287,9784.411399974488,,67786.23089997564,4998.678699950688,69233.60000003595,69233.89979999047,6120.419800048694,68000.10469998233,,68634.14430001285,67768.1838000426,Extended template,0,0.8060004329308867,33,yes,1024
0,0,0.0243470730150447,0.0243470730150447,white,yes,psycho,psycho,psycho,0,uniform,0,undefined,0,n,1,0,36,1,1,0,0,0,0,,36,0,36,36,0,36,1,36,36,Tue Dec  5 17:25:55 2023,A template containing a practice and an experimental phase,yes,언어학과심리실험_B조_기말과제용심리실험.osexp,C:\Users\caphi\Downloads,no,mono,no,18,no,black,no,no,768,psycho,33,33,0,C:\Users\caphi\Downloads\quickrun.csv,psycho,Lentiform Loewenfeld,3.3.14,no,박쥐,natural,similar-environmental,0,None,,a,,s,None,n,0.0218000495806336,,132.33819999732077,,1121.1820000316948,0.0218000495806336,696.5960999950767,2,psycho,1024,2,48000,-16,experiment,999,odd,동굴,natural,,70084.01930006221,9784.990899963304,9784.88729998935,,9651.481000008062,4176.728500053287,9784.411399974488,,69352.8405999532,4998.678699950688,70897.81979995314,70898.1158999959,6120.419800048694,69567.19189998694,,70200.23249997757,69340.27389995754,Extended template,0,0.8278004825115204,34,yes,1024
0,0,0.0244028699983443,0.0244028699983443,white,yes,psycho,psycho,psycho,0,uniform,0,undefined,0,n,1,0,37,1,1,0,0,0,0,,37,0,37,37,0,37,1,37,37,Tue Dec  5 17:25:55 2023,A template containing a practice and an experimental phase,yes,언어학과심리실험_B조_기말과제용심리실험.osexp,C:\Users\caphi\Downloads,no,mono,no,18,no,black,no,no,768,psycho,34,34,0,C:\Users\caphi\Downloads\quickrun.csv,psycho,Lentiform Loewenfeld,3.3.14,no,해질녘,natural,same phoneme,0,None,,a,,s,None,n,0.0262999674305319,,132.33819999732077,,1121.1820000316948,0.0262999674305319,589.8683000123128,2,psycho,1024,2,48000,-16,experiment,999,odd,해마,natural,,71750.41870004497,9784.990899963304,9784.88729998935,,9651.481000008062,4176.728500053287,9784.411399974488,,71020.22549998946,4998.678699950688,72457.60500000324,72457.9561999999,6120.419800048694,71233.50349999964,,71866.81090004276,70995.49250002019,Extended template,0,0.8541004499420524,35,yes,1024
0,0,0.0243138994038518,0.0243138994038518,white,yes,psycho,psycho,psycho,0,uniform,0,undefined,0,n,1,0,38,1,1,0,0,0,0,,38,0,38,38,0,38,1,38,38,Tue Dec  5 17:25:55 2023,A template containing a practice and an experimental phase,yes,언어학과심리실험_B조_기말과제용심리실험.osexp,C:\Users\caphi\Downloads,no,mono,no,18,no,black,no,no,768,psycho,35,35,0,C:\Users\caphi\Downloads\quickrun.csv,psycho,Lentiform Loewenfeld,3.3.14,no,불,natural,no-correlation,0,None,,a,,s,None,n,0.0211999285966157,,132.33819999732077,,1121.1820000316948,0.0211999285966157,541.6794000193477,2,psycho,1024,2,48000,-16,experiment,999,odd,물고기,natural,,73301.33649997879,9784.990899963304,9784.88729998935,,9651.481000008062,4176.728500053287,9784.411399974488,,72569.70900006127,4998.678699950688,73970.49950005021,73970.8083999576,6120.419800048694,72784.55370001029,,73427.86689999048,72555.07200001739,Extended template,0,0.8753003785386682,36,yes,1024
0,0,0.0242513629633027,0.0242513629633027,white,yes,psycho,psycho,psycho,0,uniform,0,undefined,0,a,1,0,39,1,1,0,0,0,0,,39,0,39,39,0,39,1,39,39,Tue Dec  5 17:25:55 2023,A template containing a practice and an experimental phase,yes,언어학과심리실험_B조_기말과제용심리실험.osexp,C:\Users\caphi\Downloads,no,mono,no,18,no,black,no,no,768,psycho,36,36,0,C:\Users\caphi\Downloads\quickrun.csv,psycho,Lentiform Loewenfeld,3.3.14,no,시,artifactual,similar-environmental,0,None,,a,,s,None,a,0.0220000511035323,,132.33819999732077,,1121.1820000316948,0.0220000511035323,820.2006999636069,2,psycho,1024,2,48000,-16,experiment,999,odd,소설,artifactual,,74818.19649995305,9784.990899963304,9784.88729998935,,9651.481000008062,4176.728500053287,9784.411399974488,,74086.22159995139,4998.678699950688,75754.46159997955,75754.77380002849,6120.419800048694,74300.26669998188,,74933.42390004545,74074.5462999912,Extended template,0,0.8973004296422005,37,yes,1024
0,0,0.0243342242595788,0.0243342242595788,white,yes,psycho,psycho,psycho,0,uniform,0,undefined,0,n,1,0,40,1,1,0,0,0,0,,40,0,40,40,0,40,1,40,40,Tue Dec  5 17:25:55 2023,A template containing a practice and an experimental phase,yes,언어학과심리실험_B조_기말과제용심리실험.osexp,C:\Users\caphi\Downloads,no,mono,no,18,no,black,no,no,768,psycho,37,37,0,C:\Users\caphi\Downloads\quickrun.csv,psycho,Lentiform Loewenfeld,3.3.14,no,곡물,natural,inclusive,0,None,,a,,s,None,n,0.0274000922217965,,132.33819999732077,,1121.1820000316948,0.0274000922217965,491.89609999302775,2,psycho,1024,2,48000,-16,experiment,999,odd,밀,natural,,76601.08569997828,9784.990899963304,9784.88729998935,,9651.481000008062,4176.728500053287,9784.411399974488,,75869.99020003714,4998.678699950688,77210.12179995887,77210.44749999419,6120.419800048694,76083.8381999638,,76717.07789995708,75857.60190000292,Extended template,0,0.924700521863997,38,yes,1024
0,0,0.0243589867097445,0.0243589867097445,white,yes,psycho,psycho,psycho,0,uniform,0,undefined,0,n,1,0,41,1,1,0,0,0,0,,41,0,41,41,0,41,1,41,41,Tue Dec  5 17:25:55 2023,A template containing a practice and an experimental phase,yes,언어학과심리실험_B조_기말과제용심리실험.osexp,C:\Users\caphi\Downloads,no,mono,no,18,no,black,no,no,768,psycho,38,38,0,C:\Users\caphi\Downloads\quickrun.csv,psycho,Lentiform Loewenfeld,3.3.14,no,동굴,natural,similar-environmental,0,None,,a,,s,None,n,0.0252999598160386,,132.33819999732077,,1121.1820000316948,0.0252999598160386,521.7801999533549,2,psycho,1024,2,48000,-16,experiment,999,odd,박쥐,natural,,78066.6108999867,9784.990899963304,9784.88729998935,,9651.481000008062,4176.728500053287,9784.411399974488,,77337.34560001176,4998.678699950688,78706.58690005075,78706.98140002787,6120.419800048694,77550.99260003772,,78183.81890002638,77315.8337000059,Extended template,0,0.9500004816800356,39,yes,1024
0,0,0.0242725131101906,0.0242725131101906,white,yes,psycho,psycho,psycho,0,uniform,0,undefined,0,a,1,0,42,1,1,0,0,0,0,,42,0,42,42,0,42,1,42,42,Tue Dec  5 17:25:55 2023,A template containing a practice and an experimental phase,yes,언어학과심리실험_B조_기말과제용심리실험.osexp,C:\Users\caphi\Downloads,no,mono,no,18,no,black,no,no,768,psycho,39,39,0,C:\Users\caphi\Downloads\quickrun.csv,psycho,Lentiform Loewenfeld,3.3.14,no,옷,artifactual,inclusive,0,None,,a,,s,None,a,0.0209000427275896,,132.33819999732077,,1121.1820000316948,0.0209000427275896,677.6428000302985,2,psycho,1024,2,48000,-16,experiment,999,odd,코트,artifactual,,79550.16650003381,9784.990899963304,9784.88729998935,,9651.481000008062,4176.728500053287,9784.411399974488,,78820.02099999227,4998.678699950688,80346.27239999827,80346.58320003655,6120.419800048694,79033.82939996663,,79667.62069996912,78809.30720001925,Extended template,0,0.9709005244076252,40,yes,1024
0,0,0.0242073310357404,0.0242073310357404,white,yes,psycho,psycho,psycho,0,uniform,0,undefined,0,n,1,0,43,1,1,0,0,0,0,,43,0,43,43,0,43,1,43,43,Tue Dec  5 17:25:55 2023,A template containing a practice and an experimental phase,yes,언어학과심리실험_B조_기말과제용심리실험.osexp,C:\Users\caphi\Downloads,no,mono,no,18,no,black,no,no,768,psycho,40,40,0,C:\Users\caphi\Downloads\quickrun.csv,psycho,Lentiform Loewenfeld,3.3.14,no,우산,artifactual,similar-environmental,0,None,,a,,s,None,n,0.0216000480577349,,132.33819999732077,,1121.1820000316948,0.0216000480577349,635.8547999989241,2,psycho,1024,2,48000,-16,experiment,999,odd,비,natural,,81200.8953000186,9784.990899963304,9784.88729998935,,9651.481000008062,4176.728500053287,9784.411399974488,,80470.97859997302,4998.678699950688,81954.66429996304,81954.99840006232,6120.419800048694,80683.96359996404,,81317.80109996907,80449.71880002413,Extended template,0,0.9925005724653602,41,yes,1024
0,0,0.0241714407734218,0.0241714407734218,white,yes,psycho,psycho,psycho,0,uniform,0,undefined,0,a,1,0,44,1,1,0,0,0,0,,44,0,44,44,0,44,1,44,44,Tue Dec  5 17:25:55 2023,A template containing a practice and an experimental phase,yes,언어학과심리실험_B조_기말과제용심리실험.osexp,C:\Users\caphi\Downloads,no,mono,no,18,no,black,no,no,768,psycho,41,41,0,C:\Users\caphi\Downloads\quickrun.csv,psycho,Lentiform Loewenfeld,3.3.14,no,성적표,artifactual,same phoneme,0,None,,a,,s,None,a,0.0226999400183558,,132.33819999732077,,1121.1820000316948,0.0226999400183558,1164.0701999422165,2,psycho,1024,2,48000,-16,experiment,999,odd,성냥,artifactual,,82801.2555000605,9784.990899963304,9784.88729998935,,9651.481000008062,4176.728500053287,9784.411399974488,,82069.70490003005,4998.678699950688,84082.15010003187,84082.47899997514,6120.419800048694,82283.82540005259,,82917.14210005011,82058.69980005082,Extended template,0,1.015200512483716,42,yes,1024
0,0,0.0241209433392383,0.0241209433392383,white,yes,psycho,psycho,psycho,0,uniform,0,undefined,0,n,1,0,45,1,1,0,0,0,0,,45,0,45,45,0,45,1,45,45,Tue Dec  5 17:25:55 2023,A template containing a practice and an experimental phase,yes,언어학과심리실험_B조_기말과제용심리실험.osexp,C:\Users\caphi\Downloads,no,mono,no,18,no,black,no,no,768,psycho,42,42,0,C:\Users\caphi\Downloads\quickrun.csv,psycho,Lentiform Loewenfeld,3.3.14,no,불,natural,no-correlation,0,None,,a,,s,None,n,0.0220000511035323,,132.33819999732077,,1121.1820000316948,0.0220000511035323,493.8556998968125,2,psycho,1024,2,48000,-16,experiment,999,odd,바위,natural,,84933.98319999687,9784.990899963304,9784.88729998935,,9651.481000008062,4176.728500053287,9784.411399974488,,84203.43790005427,4998.678699950688,85546.00119998213,85546.33240005933,6120.419800048694,84416.87139996793,,85051.28650006372,84185.04490004852,Extended template,0,1.0372005635872483,43,yes,1024
0,0,0.0241886485706676,0.0241886485706676,white,yes,psycho,psycho,psycho,0,uniform,0,undefined,0,a,1,0,46,1,1,0,0,0,0,,46,0,46,46,0,46,1,46,46,Tue Dec  5 17:25:55 2023,A template containing a practice and an experimental phase,yes,언어학과심리실험_B조_기말과제용심리실험.osexp,C:\Users\caphi\Downloads,no,mono,no,18,no,black,no,no,768,psycho,43,43,0,C:\Users\caphi\Downloads\quickrun.csv,psycho,Lentiform Loewenfeld,3.3.14,no,키보드,artifactual,similar-environmental,0,None,,a,,s,None,a,0.0270999735221266,,132.33819999732077,,1121.1820000316948,0.0270999735221266,467.36279991455376,2,psycho,1024,2,48000,-16,experiment,999,odd,컴퓨터,artifactual,,86401.57590003219,9784.990899963304,9784.88729998935,,9651.481000008062,4176.728500053287,9784.411399974488,,85669.6360000642,4998.678699950688,86986.38630006462,86986.81200004648,6120.419800048694,85883.70380003471,,86517.87850004621,85649.11620004568,Extended template,0,1.064300537109375,44,yes,1024
0,0,0.0241355660061041,0.0241355660061041,white,yes,psycho,psycho,psycho,0,uniform,0,undefined,0,a,1,0,47,1,1,0,0,0,0,,47,0,47,47,0,47,1,47,47,Tue Dec  5 17:25:55 2023,A template containing a practice and an experimental phase,yes,언어학과심리실험_B조_기말과제용심리실험.osexp,C:\Users\caphi\Downloads,no,mono,no,18,no,black,no,no,768,psycho,44,44,0,C:\Users\caphi\Downloads\quickrun.csv,psycho,Lentiform Loewenfeld,3.3.14,no,전기,natural,similar-environmental,0,None,,a,,s,None,a,0.0217999331653118,,132.33819999732077,,1121.1820000316948,0.0217999331653118,507.2240000590682,2,psycho,1024,2,48000,-16,experiment,999,odd,전선,artifactual,,87834.11990001332,9784.990899963304,9784.88729998935,,9651.481000008062,4176.728500053287,9784.411399974488,,87102.73689997848,4998.678699950688,88459.09060002305,88459.43990000524,6120.419800048694,87317.54580000415,,87950.79999999143,87088.80559995305,Extended template,0,1.0861004702746868,45,yes,1024
0,0,0.0243652282971078,0.0243652282971078,white,yes,psycho,psycho,psycho,0,uniform,0,undefined,0,a,0,0,48,1,1,0,0,0,0,,48,0,48,48,0,48,1,48,48,Tue Dec  5 17:25:55 2023,A template containing a practice and an experimental phase,yes,언어학과심리실험_B조_기말과제용심리실험.osexp,C:\Users\caphi\Downloads,no,mono,no,18,no,black,no,no,768,psycho,45,45,0,C:\Users\caphi\Downloads\quickrun.csv,psycho,Lentiform Loewenfeld,3.3.14,no,바다,natural,similar-environmental,0,None,,a,,s,None,n,0.0347000313922762,,132.33819999732077,,1121.1820000316948,0.0347000313922762,470.64399998635054,2,psycho,1024,2,48000,-16,experiment,999,odd,배,artifactual,,89318.3999999892,9784.990899963304,9784.88729998935,,9651.481000008062,4176.728500053287,9784.411399974488,,88586.44240000285,4998.678699950688,89906.41940000933,89906.82340005878,6120.419800048694,88800.57409999426,,89434.74080006126,88561.73119996674,Extended template,0,1.120800501666963,46,yes,1024
0,0,0.0244957553420929,0.0244957553420929,white,yes,psycho,psycho,psycho,0,uniform,0,undefined,0,a,1,0,49,1,1,0,0,0,0,,49,0,49,49,0,49,1,49,49,Tue Dec  5 17:25:55 2023,A template containing a practice and an experimental phase,yes,언어학과심리실험_B조_기말과제용심리실험.osexp,C:\Users\caphi\Downloads,no,mono,no,18,no,black,no,no,768,psycho,46,46,0,C:\Users\caphi\Downloads\quickrun.csv,psycho,Lentiform Loewenfeld,3.3.14,no,학교,artifactual,inclusive,0,None,,a,,s,None,a,0.0304999994114041,,132.33819999732077,,1121.1820000316948,0.0304999994114041,582.449399982579,2,psycho,1024,2,48000,-16,experiment,999,odd,학생,artifactual,,90751.20219995732,9784.990899963304,9784.88729998935,,9651.481000008062,4176.728500053287,9784.411399974488,,90020.8893000381,4998.678699950688,91450.6476999959,91451.01199997588,6120.419800048694,90234.37730001751,,90867.25520004984,90005.21470000967,Extended template,0,1.1513005010783672,47,yes,1024
0,0,0.0244625116465613,0.0244625116465613,white,yes,psycho,psycho,psycho,0,uniform,0,undefined,0,n,1,0,50,1,1,0,0,0,0,,50,0,50,50,0,50,1,50,50,Tue Dec  5 17:25:55 2023,A template containing a practice and an experimental phase,yes,언어학과심리실험_B조_기말과제용심리실험.osexp,C:\Users\caphi\Downloads,no,mono,no,18,no,black,no,no,768,psycho,47,47,0,C:\Users\caphi\Downloads\quickrun.csv,psycho,Lentiform Loewenfeld,3.3.14,no,소방서,artifactual,same phoneme,0,None,,a,,s,None,n,0.0229000579565763,,132.33819999732077,,1121.1820000316948,0.0229000579565763,591.3963000057265,2,psycho,1024,2,48000,-16,experiment,999,odd,소나무,natural,,92299.9752999749,9784.990899963304,9784.88729998935,,9651.481000008062,4176.728500053287,9784.411399974488,,91570.6728999503,4998.678699950688,93010.90059999842,93011.26689999364,6120.419800048694,91784.13749998435,,92418.55940001553,91554.8990999814,Extended template,0,1.1742005590349436,48,yes,1024
0,0,0.0243959283190114,0.0243959283190114,white,yes,psycho,psycho,psycho,0,uniform,0,undefined,0,a,1,0,51,1,1,0,0,0,0,,51,0,51,51,0,51,1,51,51,Tue Dec  5 17:25:55 2023,A template containing a practice and an experimental phase,yes,언어학과심리실험_B조_기말과제용심리실험.osexp,C:\Users\caphi\Downloads,no,mono,no,18,no,black,no,no,768,psycho,48,48,0,C:\Users\caphi\Downloads\quickrun.csv,psycho,Lentiform Loewenfeld,3.3.14,no,과일,natural,no-correlation,0,None,,a,,s,None,a,0.0211999285966157,,132.33819999732077,,1121.1820000316948,0.0211999285966157,498.015399905853,2,psycho,1024,2,48000,-16,experiment,999,odd,가방,artifactual,,93867.4919999903,9784.990899963304,9784.88729998935,,9651.481000008062,4176.728500053287,9784.411399974488,,93137.81380001456,4998.678699950688,94482.69670002628,94483.08020003606,6120.419800048694,93351.43080004492,,93983.57060004491,93115.15870003495,Extended template,0,1.1954004876315594,49,yes,1024
0,0,0.0243540108203887,0.0243540108203887,white,yes,psycho,psycho,psycho,0,uniform,0,undefined,0,n,1,0,52,1,1,0,0,0,0,,52,0,52,52,0,52,1,52,52,Tue Dec  5 17:25:55 2023,A template containing a practice and an experimental phase,yes,언어학과심리실험_B조_기말과제용심리실험.osexp,C:\Users\caphi\Downloads,no,mono,no,18,no,black,no,no,768,psycho,49,49,0,C:\Users\caphi\Downloads\quickrun.csv,psycho,Lentiform Loewenfeld,3.3.14,no,호랑이,natural,same phoneme,0,None,,a,,s,None,n,0.0223000533878803,,132.33819999732077,,1121.1820000316948,0.0223000533878803,526.304499944672,2,psycho,1024,2,48000,-16,experiment,999,odd,호수,natural,,95334.35949997512,9784.990899963304,9784.88729998935,,9651.481000008062,4176.728500053287,9784.411399974488,,94604.14499999024,4998.678699950688,95978.60739997122,95978.98500005247,6120.419800048694,94817.33230000827,,95451.20480004698,94586.9799000211,Extended template,0,1.2177005410194397,50,yes,1024
0,0,0.0243451076504938,0.0243451076504938,white,yes,psycho,psycho,psycho,0,uniform,0,undefined,0,n,1,0,53,1,1,0,0,0,0,,53,0,53,53,0,53,1,53,53,Tue Dec  5 17:25:55 2023,A template containing a practice and an experimental phase,yes,언어학과심리실험_B조_기말과제용심리실험.osexp,C:\Users\caphi\Downloads,no,mono,no,18,no,black,no,no,768,psycho,50,50,0,C:\Users\caphi\Downloads\quickrun.csv,psycho,Lentiform Loewenfeld,3.3.14,no,항구,artifactual,similar-environmental,0,None,,a,,s,None,n,0.0238999491557478,,132.33819999732077,,1121.1820000316948,0.0238999491557478,531.3603000249714,2,psycho,1024,2,48000,-16,experiment,999,odd,바다,natural,,96834.36520001852,9784.990899963304,9784.88729998935,,9651.481000008062,4176.728500053287,9784.411399974488,,96104.66559999622,4998.678699950688,97483.64710004536,97484.05410000125,6120.419800048694,96317.27700005284,,96951.24580000991,96081.19229995646,Extended template,0,1.2416004901751876,51,yes,1024
0,0,0.0244211629391289,0.0244211629391289,white,yes,psycho,psycho,psycho,0,uniform,0,undefined,0,a,1,0,54,1,1,0,0,0,0,,54,0,54,54,0,54,1,54,54,Tue Dec  5 17:25:55 2023,A template containing a practice and an experimental phase,yes,언어학과심리실험_B조_기말과제용심리실험.osexp,C:\Users\caphi\Downloads,no,mono,no,18,no,black,no,no,768,psycho,51,51,0,C:\Users\caphi\Downloads\quickrun.csv,psycho,Lentiform Loewenfeld,3.3.14,no,마우스,artifactual,no-correlation,0,None,,a,,s,None,a,0.0282999826595187,,132.33819999732077,,1121.1820000316948,0.0282999826595187,590.8899999922141,2,psycho,1024,2,48000,-16,experiment,999,odd,모자,artifactual,,98334.87939997576,9784.990899963304,9784.88729998935,,9651.481000008062,4176.728500053287,9784.411399974488,,97603.42309996486,4998.678699950688,99043.33350004164,99043.76340005548,6120.419800048694,97817.89319997188,,98451.18440000806,97587.66489999834,Extended template,0,1.2699004728347063,52,yes,1024
0,0,0.0243641607428215,0.0243641607428215,white,yes,psycho,psycho,psycho,0,uniform,0,undefined,0,x,1,0,55,1,1,0,0,0,0,,55,0,55,55,0,55,1,55,55,Tue Dec  5 17:25:55 2023,A template containing a practice and an experimental phase,yes,언어학과심리실험_B조_기말과제용심리실험.osexp,C:\Users\caphi\Downloads,no,mono,no,18,no,black,no,no,768,psycho,52,52,0,C:\Users\caphi\Downloads\quickrun.csv,psycho,Lentiform Loewenfeld,3.3.14,no,폭풍,natural,non-word,0,None,,a,,s,None,x,0.0214000465348362,,132.33819999732077,,1121.1820000316948,0.0214000465348362,888.1859999382868,2,psycho,1024,2,48000,-16,experiment,999,odd,섬강,non-word,,99901.23940003105,9784.990899963304,9784.88729998935,,9651.481000008062,4176.728500053287,9784.411399974488,,99170.79390003346,4998.678699950688,100907.22609998193,100907.6161000412,6120.419800048694,99384.62140003683,,100018.05920002516,99146.0456000641,Extended template,0,1.2913005193695426,53,yes,1024
0,0,0.0243333439963559,0.0243333439963559,white,yes,psycho,psycho,psycho,0,uniform,0,undefined,0,x,1,0,56,1,1,0,0,0,0,,56,0,56,56,0,56,1,56,56,Tue Dec  5 17:25:55 2023,A template containing a practice and an experimental phase,yes,언어학과심리실험_B조_기말과제용심리실험.osexp,C:\Users\caphi\Downloads,no,mono,no,18,no,black,no,no,768,psycho,53,53,0,C:\Users\caphi\Downloads\quickrun.csv,psycho,Lentiform Loewenfeld,3.3.14,no,사자,natural,non-word,0,None,,a,,s,None,x,0.0227000564336776,,132.33819999732077,,1121.1820000316948,0.0227000564336776,653.7575999973342,2,psycho,1024,2,48000,-16,experiment,999,odd,러스바이,non-word,,101767.44389999658,9784.990899963304,9784.88729998935,,9651.481000008062,4176.728500053287,9784.411399974488,,101037.5315999845,4998.678699950688,102538.77210000064,102539.16849999224,6120.419800048694,101251.38939998578,,101883.95030004904,101011.7428000085,Extended template,0,1.3140005758032205,54,yes,1024
0,0,0.024325464090163,0.024325464090163,white,yes,psycho,psycho,psycho,0,uniform,0,undefined,0,a,1,0,57,1,1,0,0,0,0,,57,0,57,57,0,57,1,57,57,Tue Dec  5 17:25:55 2023,A template containing a practice and an experimental phase,yes,언어학과심리실험_B조_기말과제용심리실험.osexp,C:\Users\caphi\Downloads,no,mono,no,18,no,black,no,no,768,psycho,54,54,0,C:\Users\caphi\Downloads\quickrun.csv,psycho,Lentiform Loewenfeld,3.3.14,no,불,natural,similar-environmental,0,None,,a,,s,None,a,0.0238999491557478,,132.33819999732077,,1121.1820000316948,0.0238999491557478,532.5920999748632,2,psycho,1024,2,48000,-16,experiment,999,odd,소화기,artifactual,,103384.80660005008,9784.990899963304,9784.88729998935,,9651.481000008062,4176.728500053287,9784.411399974488,,102654.04659998605,4998.678699950688,104035.16730002592,104035.56510002818,6120.419800048694,102866.50889995508,,103501.3151000021,102635.4500000598,Extended template,0,1.3379005249589682,55,yes,1024
0,0,0.024364296612995,0.024364296612995,white,yes,psycho,psycho,psycho,0,uniform,0,undefined,0,a,1,0,58,1,1,0,0,0,0,,58,0,58,58,0,58,1,58,58,Tue Dec  5 17:25:55 2023,A template containing a practice and an experimental phase,yes,언어학과심리실험_B조_기말과제용심리실험.osexp,C:\Users\caphi\Downloads,no,mono,no,18,no,black,no,no,768,psycho,55,55,0,C:\Users\caphi\Downloads\quickrun.csv,psycho,Lentiform Loewenfeld,3.3.14,no,플피,non-word,non-word,0,None,,a,,s,None,a,0.0265000853687524,,132.33819999732077,,1121.1820000316948,0.0265000853687524,568.88010003604,2,psycho,1024,2,48000,-16,experiment,999,odd,책상,artifactual,,104885.8008000534,9784.990899963304,9784.88729998935,,9651.481000008062,4176.728500053287,9784.411399974488,,104154.63929995894,4998.678699950688,105570.5054999562,105570.94440003856,6120.419800048694,104368.03310003596,,105000.58340001851,104138.6340999743,Extended template,0,1.3644006103277206,56,yes,1024
0,0,0.0243719418026637,0.0243719418026637,white,yes,psycho,psycho,psycho,0,uniform,0,undefined,0,n,1,0,59,1,1,0,0,0,0,,59,0,59,59,0,59,1,59,59,Tue Dec  5 17:25:55 2023,A template containing a practice and an experimental phase,yes,언어학과심리실험_B조_기말과제용심리실험.osexp,C:\Users\caphi\Downloads,no,mono,no,18,no,black,no,no,768,psycho,56,56,0,C:\Users\caphi\Downloads\quickrun.csv,psycho,Lentiform Loewenfeld,3.3.14,no,경주,artifactual,no-correlation,0,None,,a,,s,None,n,0.0248000724241137,,132.33819999732077,,1121.1820000316948,0.0248000724241137,900.8857000153512,2,psycho,1024,2,48000,-16,experiment,999,odd,소나무,natural,,106417.63160005212,9784.990899963304,9784.88729998935,,9651.481000008062,4176.728500053287,9784.411399974488,,105687.05439998304,4998.678699950688,107435.31159998383,107435.7848999789,6120.419800048694,105900.3724999493,,106533.23239996098,105674.76970003918,Extended template,0,1.3892006827518344,57,yes,1024
0,0,0.02432242638014,0.02432242638014,white,yes,psycho,psycho,psycho,0,uniform,0,undefined,0,a,1,0,60,1,1,0,0,0,0,,60,0,60,60,0,60,1,60,60,Tue Dec  5 17:25:55 2023,A template containing a practice and an experimental phase,yes,언어학과심리실험_B조_기말과제용심리실험.osexp,C:\Users\caphi\Downloads,no,mono,no,18,no,black,no,no,768,psycho,57,57,0,C:\Users\caphi\Downloads\quickrun.csv,psycho,Lentiform Loewenfeld,3.3.14,no,건물,artifactual,inclusive,0,None,,a,,s,None,a,0.0215000472962856,,132.33819999732077,,1121.1820000316948,0.0215000472962856,552.5053999153897,2,psycho,1024,2,48000,-16,experiment,999,odd,병원,artifactual,,108284.15560000576,9784.990899963304,9784.88729998935,,9651.481000008062,4176.728500053287,9784.411399974488,,107553.6707000574,4998.678699950688,108955.17580001616,108955.57910006028,6120.419800048694,107768.10139999723,,108401.65470005012,107535.52270005456,Extended template,0,1.41070073004812,58,yes,1024
0,0,0.0242796742309958,0.0242796742309958,white,yes,psycho,psycho,psycho,0,uniform,0,undefined,0,n,1,0,61,1,1,0,0,0,0,,61,0,61,61,0,61,1,61,61,Tue Dec  5 17:25:55 2023,A template containing a practice and an experimental phase,yes,언어학과심리실험_B조_기말과제용심리실험.osexp,C:\Users\caphi\Downloads,no,mono,no,18,no,black,no,no,768,psycho,58,58,0,C:\Users\caphi\Downloads\quickrun.csv,psycho,Lentiform Loewenfeld,3.3.14,no,대학교,artifactual,no-correlation,0,None,,a,,s,None,n,0.0218000495806336,,132.33819999732077,,1121.1820000316948,0.0218000495806336,740.4235999565572,2,psycho,1024,2,48000,-16,experiment,999,odd,계곡,natural,,109801.41119996551,9784.990899963304,9784.88729998935,,9651.481000008062,4176.728500053287,9784.411399974488,,109071.19769998826,4998.678699950688,110659.33339996263,110659.77879997808,6120.419800048694,109285.23779998068,,109917.91790002026,109060.17329997849,Extended template,0,1.4325007796287537,59,yes,1024
0,0,0.0242550120068093,0.0242550120068093,white,yes,psycho,psycho,psycho,0,uniform,0,undefined,0,n,1,0,62,1,1,0,0,0,0,,62,0,62,62,0,62,1,62,62,Tue Dec  5 17:25:55 2023,A template containing a practice and an experimental phase,yes,언어학과심리실험_B조_기말과제용심리실험.osexp,C:\Users\caphi\Downloads,no,mono,no,18,no,black,no,no,768,psycho,59,59,0,C:\Users\caphi\Downloads\quickrun.csv,psycho,Lentiform Loewenfeld,3.3.14,no,패딩,artifactual,similar-environmental,0,None,,a,,s,None,n,0.0227999407798051,,132.33819999732077,,1121.1820000316948,0.0227999407798051,743.8325999537483,2,psycho,1024,2,48000,-16,experiment,999,odd,겨울,natural,,111518.1657000212,9784.990899963304,9784.88729998935,,9651.481000008062,4176.728500053287,9784.411399974488,,110787.53980004694,4998.678699950688,112379.77850006428,112380.1967999898,6120.419800048694,111001.74049998168,,111634.8381000571,110766.08690002467,Extended template,0,1.4553007204085588,60,yes,1024
0,0,0.0242278796666469,0.0242278796666469,white,yes,psycho,psycho,psycho,0,uniform,0,undefined,0,n,1,0,63,1,1,0,0,0,0,,63,0,63,63,0,63,1,63,63,Tue Dec  5 17:25:55 2023,A template containing a practice and an experimental phase,yes,언어학과심리실험_B조_기말과제용심리실험.osexp,C:\Users\caphi\Downloads,no,mono,no,18,no,black,no,no,768,psycho,60,60,0,C:\Users\caphi\Downloads\quickrun.csv,psycho,Lentiform Loewenfeld,3.3.14,no,숲,natural,inclusive,0,None,,a,,s,None,n,0.0225999392569065,,132.33819999732077,,1121.1820000316948,0.0225999392569065,610.8128000050783,2,psycho,1024,2,48000,-16,experiment,999,odd,나무,natural,,113219.3861999549,9784.990899963304,9784.88729998935,,9651.481000008062,4176.728500053287,9784.411399974488,,112487.23750002682,4998.678699950688,113946.99740002396,113947.43389997166,6120.419800048694,112701.1685000034,,113335.1682999637,112478.41009998228,Extended template,0,1.4779006596654654,61,yes,1024
0,0,0.0242016244409305,0.0242016244409305,white,yes,psycho,psycho,psycho,0,uniform,0,undefined,0,n,1,0,64,1,1,0,0,0,0,,64,0,64,64,0,64,1,64,64,Tue Dec  5 17:25:55 2023,A template containing a practice and an experimental phase,yes,언어학과심리실험_B조_기말과제용심리실험.osexp,C:\Users\caphi\Downloads,no,mono,no,18,no,black,no,no,768,psycho,61,61,0,C:\Users\caphi\Downloads\quickrun.csv,psycho,Lentiform Loewenfeld,3.3.14,no,새,natural,inclusive,0,None,,a,,s,None,n,0.0226000556722283,,132.33819999732077,,1121.1820000316948,0.0226000556722283,620.6661999458447,2,psycho,1024,2,48000,-16,experiment,999,odd,까치,natural,,114802.10289999376,9784.990899963304,9784.88729998935,,9651.481000008062,4176.728500053287,9784.411399974488,,114071.95959996898,4998.678699950688,115539.83749996404,115540.26749997864,6120.419800048694,114285.06739996374,,114918.09170006309,114051.02809995878,Extended template,0,1.5005007153376937,62,yes,1024
0,0,0.0246936632763771,0.0246936632763771,white,yes,psycho,psycho,psycho,0,uniform,0,undefined,0,n,1,0,65,1,1,0,0,0,0,,65,0,65,65,0,65,1,65,65,Tue Dec  5 17:25:55 2023,A template containing a practice and an experimental phase,yes,언어학과심리실험_B조_기말과제용심리실험.osexp,C:\Users\caphi\Downloads,no,mono,no,18,no,black,no,no,768,psycho,62,62,0,C:\Users\caphi\Downloads\quickrun.csv,psycho,Lentiform Loewenfeld,3.3.14,no,풍차,artifactual,no-correlation,0,None,,a,,s,None,n,0.0552000710740685,,132.33819999732077,,1121.1820000316948,0.0552000710740685,651.7533999867737,2,psycho,1024,2,48000,-16,experiment,999,odd,흙,natural,,116385.36940002814,9784.990899963304,9784.88729998935,,9651.481000008062,4176.728500053287,9784.411399974488,,115655.33910004888,4998.678699950688,117155.69499996492,117156.196200056,6120.419800048694,115868.1078000227,,116502.2733999649,115642.0880999649,Extended template,0,1.5557007864117622,63,yes,1024
0,0,0.0246343879553023,0.0246343879553023,white,yes,psycho,psycho,psycho,0,uniform,0,undefined,0,x,1,0,66,1,1,0,0,0,0,,66,0,66,66,0,66,1,66,66,Tue Dec  5 17:25:55 2023,A template containing a practice and an experimental phase,yes,언어학과심리실험_B조_기말과제용심리실험.osexp,C:\Users\caphi\Downloads,no,mono,no,18,no,black,no,no,768,psycho,63,63,0,C:\Users\caphi\Downloads\quickrun.csv,psycho,Lentiform Loewenfeld,3.3.14,no,냉장고,artifactual,non-word,0,None,,a,,s,None,x,0.0209000427275896,,132.33819999732077,,1121.1820000316948,0.0209000427275896,1251.9454000284895,2,psycho,1024,2,48000,-16,experiment,999,odd,로방삭,non-word,,118018.1322999997,9784.990899963304,9784.88729998935,,9651.481000008062,4176.728500053287,9784.411399974488,,117286.96769999806,4998.678699950688,119387.16729998124,119387.61900004464,6120.419800048694,117501.65400002152,,118134.21910000034,117264.78299999144,Extended template,0,1.5766008291393518,64,yes,1024
0,0,0.0246200119503415,0.0246200119503415,white,yes,psycho,psycho,psycho,0,uniform,0,undefined,0,a,1,0,67,1,1,0,0,0,0,,67,0,67,67,0,67,1,67,67,Tue Dec  5 17:25:55 2023,A template containing a practice and an experimental phase,yes,언어학과심리실험_B조_기말과제용심리실험.osexp,C:\Users\caphi\Downloads,no,mono,no,18,no,black,no,no,768,psycho,64,64,0,C:\Users\caphi\Downloads\quickrun.csv,psycho,Lentiform Loewenfeld,3.3.14,no,악어,natural,same phoneme,0,None,,a,,s,None,a,0.0236999476328492,,132.33819999732077,,1121.1820000316948,0.0236999476328492,523.3597999904305,2,psycho,1024,2,48000,-16,experiment,999,odd,악기,artifactual,,120234.81419996824,9784.990899963304,9784.88729998935,,9651.481000008062,4176.728500053287,9784.411399974488,,119504.55760001203,4998.678699950688,120876.16360001266,120876.7190000508,6120.419800048694,119719.26789998544,,120351.78999998608,119492.14530002791,Extended template,0,1.600300776772201,65,yes,1024
0,0,0.0245863762260837,0.0245863762260837,white,yes,psycho,psycho,psycho,0,uniform,0,undefined,0,a,1,0,68,1,1,0,0,0,0,,68,0,68,68,0,68,1,68,68,Tue Dec  5 17:25:55 2023,A template containing a practice and an experimental phase,yes,언어학과심리실험_B조_기말과제용심리실험.osexp,C:\Users\caphi\Downloads,no,mono,no,18,no,black,no,no,768,psycho,65,65,0,C:\Users\caphi\Downloads\quickrun.csv,psycho,Lentiform Loewenfeld,3.3.14,no,모니터,artifactual,same phoneme,0,None,,a,,s,None,a,0.0224000541493296,,132.33819999732077,,1121.1820000316948,0.0224000541493296,574.7810999164358,2,psycho,1024,2,48000,-16,experiment,999,odd,모터,artifactual,,121734.73929998,9784.990899963304,9784.88729998935,,9651.481000008062,4176.728500053287,9784.411399974488,,121005.34050003624,4998.678699950688,122427.37699998544,122427.83279996364,6120.419800048694,121221.4581000153,,121851.55300004408,120981.62350000348,Extended template,0,1.6227008309215307,66,yes,1024
0,0,0.0245507577183976,0.0245507577183976,white,yes,psycho,psycho,psycho,0,uniform,0,undefined,0,a,1,0,69,1,1,0,0,0,0,,69,0,69,69,0,69,1,69,69,Tue Dec  5 17:25:55 2023,A template containing a practice and an experimental phase,yes,언어학과심리실험_B조_기말과제용심리실험.osexp,C:\Users\caphi\Downloads,no,mono,no,18,no,black,no,no,768,psycho,66,66,0,C:\Users\caphi\Downloads\quickrun.csv,psycho,Lentiform Loewenfeld,3.3.14,no,성냥,artifactual,same phoneme,0,None,,a,,s,None,a,0.0221999362111091,,132.33819999732077,,1121.1820000316948,0.0221999362111091,706.0230999486521,2,psycho,1024,2,48000,-16,experiment,999,odd,성적표,artifactual,,123268.47470004576,9784.990899963304,9784.88729998935,,9651.481000008062,4176.728500053287,9784.411399974488,,122538.68680004962,4998.678699950688,124091.65940003004,124092.12120005397,6120.419800048694,122752.33749998732,,123384.57800005564,122527.15300000273,Extended template,0,1.64490076713264,67,yes,1024
0,0,0.0245220692116109,0.0245220692116109,white,yes,psycho,psycho,psycho,0,uniform,0,undefined,0,a,1,0,70,1,1,0,0,0,0,,70,0,70,70,0,70,1,70,70,Tue Dec  5 17:25:55 2023,A template containing a practice and an experimental phase,yes,언어학과심리실험_B조_기말과제용심리실험.osexp,C:\Users\caphi\Downloads,no,mono,no,18,no,black,no,no,768,psycho,67,67,0,C:\Users\caphi\Downloads\quickrun.csv,psycho,Lentiform Loewenfeld,3.3.14,no,호수,natural,no-correlation,0,None,,a,,s,None,a,0.0225999392569065,,132.33819999732077,,1121.1820000316948,0.0225999392569065,526.3416999951005,2,psycho,1024,2,48000,-16,experiment,999,odd,대학교,artifactual,,124934.4605000224,9784.990899963304,9784.88729998935,,9651.481000008062,4176.728500053287,9784.411399974488,,124204.52170004135,4998.678699950688,125580.11520002036,125580.58970002456,6120.419800048694,124421.41830001492,,125052.67640005331,124190.50030002836,Extended template,0,1.6675007063895464,68,yes,1024
0,0,0.0245087068069024,0.0245087068069024,white,yes,psycho,psycho,psycho,0,uniform,0,undefined,0,n,1,0,71,1,1,0,0,0,0,,71,0,71,71,0,71,1,71,71,Tue Dec  5 17:25:55 2023,A template containing a practice and an experimental phase,yes,언어학과심리실험_B조_기말과제용심리실험.osexp,C:\Users\caphi\Downloads,no,mono,no,18,no,black,no,no,768,psycho,68,68,0,C:\Users\caphi\Downloads\quickrun.csv,psycho,Lentiform Loewenfeld,3.3.14,no,장슈,non-word,non-word,0,None,,a,,s,None,n,0.0236000632867217,,132.33819999732077,,1121.1820000316948,0.0236000632867217,586.754999938421,2,psycho,1024,2,48000,-16,experiment,999,odd,다람쥐,natural,,126435.65800006036,9784.990899963304,9784.88729998935,,9651.481000008062,4176.728500053287,9784.411399974488,,125704.51319997665,4998.678699950688,127139.8430999834,127140.30670002104,6120.419800048694,125921.75259999932,,126551.92270001862,125691.43859995528,Extended template,0,1.691100769676268,69,yes,1024
0,0,0.0245228675859315,0.0245228675859315,white,yes,psycho,psycho,psycho,0,uniform,0,undefined,0,a,1,0,72,1,1,0,0,0,0,,72,0,72,72,0,72,1,72,72,Tue Dec  5 17:25:55 2023,A template containing a practice and an experimental phase,yes,언어학과심리실험_B조_기말과제용심리실험.osexp,C:\Users\caphi\Downloads,no,mono,no,18,no,black,no,no,768,psycho,69,69,0,C:\Users\caphi\Downloads\quickrun.csv,psycho,Lentiform Loewenfeld,3.3.14,no,바다,natural,same phoneme,0,None,,a,,s,None,a,0.0254999613389372,,132.33819999732077,,1121.1820000316948,0.0254999613389372,3700.543400016613,2,psycho,1024,2,48000,-16,experiment,999,odd,바구니,artifactual,,127985.30960001516,9784.990899963304,9784.88729998935,,9651.481000008062,4176.728500053287,9784.411399974488,,127254.48510004207,4998.678699950688,131803.30110003706,131803.80660004448,6120.419800048694,127468.89709995594,,128101.71119996812,127244.45470003413,Extended template,0,1.7166007310152054,70,yes,1024
0,0,0.0245000111122786,0.0245000111122786,white,yes,psycho,psycho,psycho,0,uniform,0,undefined,0,a,1,0,73,1,1,0,0,0,0,,73,0,73,73,0,73,1,73,73,Tue Dec  5 17:25:55 2023,A template containing a practice and an experimental phase,yes,언어학과심리실험_B조_기말과제용심리실험.osexp,C:\Users\caphi\Downloads,no,mono,no,18,no,black,no,no,768,psycho,70,70,0,C:\Users\caphi\Downloads\quickrun.csv,psycho,Lentiform Loewenfeld,3.3.14,no,경주,artifactual,no-correlation,0,None,,a,,s,None,a,0.0229000579565763,,132.33819999732077,,1121.1820000316948,0.0229000579565763,746.1515000322834,2,psycho,1024,2,48000,-16,experiment,999,odd,버스,artifactual,,132652.4646000471,9784.990899963304,9784.88729998935,,9651.481000008062,4176.728500053287,9784.411399974488,,131921.645800001,4998.678699950688,133516.17620000616,133516.66309998836,6120.419800048694,132134.9171999609,,132768.90699996147,131908.2819999894,Extended template,0,1.7395007889717815,71,yes,1024
0,0,0.0244611227470967,0.0244611227470967,white,yes,psycho,psycho,psycho,0,uniform,0,undefined,0,a,1,0,74,1,1,0,0,0,0,,74,0,74,74,0,74,1,74,74,Tue Dec  5 17:25:55 2023,A template containing a practice and an experimental phase,yes,언어학과심리실험_B조_기말과제용심리실험.osexp,C:\Users\caphi\Downloads,no,mono,no,18,no,black,no,no,768,psycho,71,71,0,C:\Users\caphi\Downloads\quickrun.csv,psycho,Lentiform Loewenfeld,3.3.14,no,눈,natural,similar-environmental,0,None,,a,,s,None,a,0.0217000488191843,,132.33819999732077,,1121.1820000316948,0.0217000488191843,557.3472999967635,2,psycho,1024,2,48000,-16,experiment,999,odd,스키,artifactual,,134369.13410003763,9784.990899963304,9784.88729998935,,9651.481000008062,4176.728500053287,9784.411399974488,,133637.8537999699,4998.678699950688,135043.53989998344,135044.02090003714,6120.419800048694,133851.95949999616,,134485.03610002808,133614.64789998718,Extended template,0,1.761200837790966,72,yes,1024
0,0,0.0244191886015134,0.0244191886015134,white,yes,psycho,psycho,psycho,0,uniform,0,undefined,0,a,1,0,75,1,1,0,0,0,0,,75,0,75,75,0,75,1,75,75,Tue Dec  5 17:25:55 2023,A template containing a practice and an experimental phase,yes,언어학과심리실험_B조_기말과제용심리실험.osexp,C:\Users\caphi\Downloads,no,mono,no,18,no,black,no,no,768,psycho,72,72,0,C:\Users\caphi\Downloads\quickrun.csv,psycho,Lentiform Loewenfeld,3.3.14,no,화분,artifactual,no-correlation,0,None,,a,,s,None,a,0.0213999301195144,,132.33819999732077,,1121.1820000316948,0.0213999301195144,816.5125999366865,2,psycho,1024,2,48000,-16,experiment,999,odd,신발,artifactual,,135885.5571000604,9784.990899963304,9784.88729998935,,9651.481000008062,4176.728500053287,9784.411399974488,,135154.83669994865,4998.678699950688,136819.9198000366,136820.416499977,6120.419800048694,135368.86469996534,,136002.3917000508,135142.02070003375,Extended template,0,1.7826007679104805,73,yes,1024
0,0,0.0243797391728573,0.0243797391728573,white,yes,psycho,psycho,psycho,0,uniform,0,undefined,0,n,1,0,76,1,1,0,0,0,0,,76,0,76,76,0,76,1,76,76,Tue Dec  5 17:25:55 2023,A template containing a practice and an experimental phase,yes,언어학과심리실험_B조_기말과제용심리실험.osexp,C:\Users\caphi\Downloads,no,mono,no,18,no,black,no,no,768,psycho,73,73,0,C:\Users\caphi\Downloads\quickrun.csv,psycho,Lentiform Loewenfeld,3.3.14,no,얼음,natural,no-correlation,0,None,,a,,s,None,n,0.0214999308809638,,132.33819999732077,,1121.1820000316948,0.0214999308809638,632.2102000704035,2,psycho,1024,2,48000,-16,experiment,999,odd,돌,natural,,137669.34320004657,9784.990899963304,9784.88729998935,,9651.481000008062,4176.728500053287,9784.411399974488,,136938.72720003128,4998.678699950688,138420.1514000306,138420.6393000204,6120.419800048694,137152.7665000176,,137786.61239997018,136922.95090004336,Extended template,0,1.8041006987914443,74,yes,1024
0,0,0.0243573418507973,0.0243573418507973,white,yes,psycho,psycho,psycho,0,uniform,0,undefined,0,a,1,0,77,1,1,0,0,0,0,,77,0,77,77,0,77,1,77,77,Tue Dec  5 17:25:55 2023,A template containing a practice and an experimental phase,yes,언어학과심리실험_B조_기말과제용심리실험.osexp,C:\Users\caphi\Downloads,no,mono,no,18,no,black,no,no,768,psycho,74,74,0,C:\Users\caphi\Downloads\quickrun.csv,psycho,Lentiform Loewenfeld,3.3.14,no,꽃,natural,no-correlation,0,None,,a,,s,None,a,0.0226999400183558,,132.33819999732077,,1121.1820000316948,0.0226999400183558,625.8645000634715,2,psycho,1024,2,48000,-16,experiment,999,odd,경주,artifactual,,139269.316000049,9784.990899963304,9784.88729998935,,9651.481000008062,4176.728500053287,9784.411399974488,,138538.71380002238,4998.678699950688,140012.08340004086,140012.60080002248,6120.419800048694,138752.26710003335,,139385.05479996093,138522.92869996745,Extended template,0,1.8268006388098,75,yes,1024
0,0,0.0244105360348169,0.0244105360348169,white,yes,psycho,psycho,psycho,0,uniform,0,undefined,0,n,1,0,78,1,1,0,0,0,0,,78,0,78,78,0,78,1,78,78,Tue Dec  5 17:25:55 2023,A template containing a practice and an experimental phase,yes,언어학과심리실험_B조_기말과제용심리실험.osexp,C:\Users\caphi\Downloads,no,mono,no,18,no,black,no,no,768,psycho,75,75,0,C:\Users\caphi\Downloads\quickrun.csv,psycho,Lentiform Loewenfeld,3.3.14,no,스노우보드,artifactual,no-correlation,0,None,,a,,s,None,n,0.0284000998362898,,132.33819999732077,,1121.1820000316948,0.0284000998362898,497.1146000316367,2,psycho,1024,2,48000,-16,experiment,999,odd,소나무,natural,,140869.37149998266,9784.990899963304,9784.88729998935,,9651.481000008062,4176.728500053287,9784.411399974488,,140138.81529995706,4998.678699950688,141484.5524999546,141485.29490001965,6120.419800048694,140352.21949999686,,140986.14529997576,140119.74520003423,Extended template,0,1.85520073864609,76,yes,1024
0,0,0.024387021790948,0.024387021790948,white,yes,psycho,psycho,psycho,0,uniform,0,undefined,0,n,1,0,79,1,1,0,0,0,0,,79,0,79,79,0,79,1,79,79,Tue Dec  5 17:25:55 2023,A template containing a practice and an experimental phase,yes,언어학과심리실험_B조_기말과제용심리실험.osexp,C:\Users\caphi\Downloads,no,mono,no,18,no,black,no,no,768,psycho,76,76,0,C:\Users\caphi\Downloads\quickrun.csv,psycho,Lentiform Loewenfeld,3.3.14,no,상새고,non-word,non-word,0,None,,a,,s,None,n,0.0225999392569065,,132.33819999732077,,1121.1820000316948,0.0225999392569065,3422.3970000166446,2,psycho,1024,2,48000,-16,experiment,999,odd,나뭇잎,natural,,142336.33590000682,9784.990899963304,9784.88729998935,,9651.481000008062,4176.728500053287,9784.411399974488,,141604.8619999783,4998.678699950688,145876.04460003786,145876.56420003623,6120.419800048694,141819.07930003945,,142452.49659998808,141593.8399999868,Extended template,0,1.8778006779029963,77,yes,1024
0,0,0.0243948799414703,0.0243948799414703,white,yes,psycho,psycho,psycho,0,uniform,0,undefined,0,a,1,0,80,1,1,0,0,0,0,,80,0,80,80,0,80,1,80,80,Tue Dec  5 17:25:55 2023,A template containing a practice and an experimental phase,yes,언어학과심리실험_B조_기말과제용심리실험.osexp,C:\Users\caphi\Downloads,no,mono,no,18,no,black,no,no,768,psycho,77,77,0,C:\Users\caphi\Downloads\quickrun.csv,psycho,Lentiform Loewenfeld,3.3.14,no,종이,artifactual,similar-environmental,0,None,,a,,s,None,a,0.0249999575316905,,132.33819999732077,,1121.1820000316948,0.0249999575316905,582.9115000087768,2,psycho,1024,2,48000,-16,experiment,999,odd,프린터,artifactual,,146719.81300006155,9784.990899963304,9784.88729998935,,9651.481000008062,4176.728500053287,9784.411399974488,,145988.00360003952,4998.678699950688,147420.1379000442,147420.7211000612,6120.419800048694,146202.29809999,,146835.93549998477,145978.86809997726,Extended template,0,1.9028006354346871,78,yes,1024
0,0,0.0243772239766166,0.0243772239766166,white,yes,psycho,psycho,psycho,0,uniform,0,undefined,0,a,1,0,81,1,1,0,0,0,0,,81,0,81,81,0,81,1,81,81,Tue Dec  5 17:25:55 2023,A template containing a practice and an experimental phase,yes,언어학과심리실험_B조_기말과제용심리실험.osexp,C:\Users\caphi\Downloads,no,mono,no,18,no,black,no,no,768,psycho,78,78,0,C:\Users\caphi\Downloads\quickrun.csv,psycho,Lentiform Loewenfeld,3.3.14,no,바람,natural,no-correlation,0,None,,a,,s,None,a,0.0230000587180256,,132.33819999732077,,1121.1820000316948,0.0230000587180256,745.7183999940753,2,psycho,1024,2,48000,-16,experiment,999,odd,버스,artifactual,,148269.77749995422,9784.990899963304,9784.88729998935,,9651.481000008062,4176.728500053287,9784.411399974488,,147538.84559997823,4998.678699950688,149133.16129997838,149133.74219997786,6120.419800048694,147752.06510000862,,148385.95799996983,147524.04399996158,Extended template,0,1.9258006941527128,79,yes,1024
0,0,0.0243487593252211,0.0243487593252211,white,yes,psycho,psycho,psycho,0,uniform,0,undefined,0,n,1,0,82,1,1,0,0,0,0,,82,0,82,82,0,82,1,82,82,Tue Dec  5 17:25:55 2023,A template containing a practice and an experimental phase,yes,언어학과심리실험_B조_기말과제용심리실험.osexp,C:\Users\caphi\Downloads,no,mono,no,18,no,black,no,no,768,psycho,79,79,0,C:\Users\caphi\Downloads\quickrun.csv,psycho,Lentiform Loewenfeld,3.3.14,no,스노우보드,artifactual,no-correlation,0,None,,a,,s,None,n,0.0221000518649816,,132.33819999732077,,1121.1820000316948,0.0221000518649816,484.5806999364868,2,psycho,1024,2,48000,-16,experiment,999,odd,꽃,natural,,150003.15630005207,9784.990899963304,9784.88729998935,,9651.481000008062,4176.728500053287,9784.411399974488,,149272.9182000039,4998.678699950688,150604.32729998138,150604.8469999805,6120.419800048694,149486.23579996638,,150118.5554000549,149248.62349999603,Extended template,0,1.9479007460176945,80,yes,1024
0,0,0.0243222320820262,0.0243222320820262,white,yes,psycho,psycho,psycho,0,uniform,0,undefined,0,a,1,0,83,1,1,0,0,0,0,,83,0,83,83,0,83,1,83,83,Tue Dec  5 17:25:55 2023,A template containing a practice and an experimental phase,yes,언어학과심리실험_B조_기말과제용심리실험.osexp,C:\Users\caphi\Downloads,no,mono,no,18,no,black,no,no,768,psycho,80,80,0,C:\Users\caphi\Downloads\quickrun.csv,psycho,Lentiform Loewenfeld,3.3.14,no,가방,artifactual,no-correlation,0,None,,a,,s,None,a,0.0222000526264309,,132.33819999732077,,1121.1820000316948,0.0222000526264309,650.617599952966,2,psycho,1024,2,48000,-16,experiment,999,odd,기차,artifactual,,151451.86849997845,9784.990899963304,9784.88729998935,,9651.481000008062,4176.728500053287,9784.411399974488,,150721.4731000131,4998.678699950688,152220.35389998928,152220.8938000258,6120.419800048694,150936.21089996304,,151568.49330000114,150707.93070003856,Extended template,0,1.9701007986441252,81,yes,1024
0,0,0.0243024480324692,0.0243024480324692,white,yes,psycho,psycho,psycho,0,uniform,0,undefined,0,n,1,0,84,1,1,0,0,0,0,,84,0,84,84,0,84,1,84,84,Tue Dec  5 17:25:55 2023,A template containing a practice and an experimental phase,yes,언어학과심리실험_B조_기말과제용심리실험.osexp,C:\Users\caphi\Downloads,no,mono,no,18,no,black,no,no,768,psycho,81,81,0,C:\Users\caphi\Downloads\quickrun.csv,psycho,Lentiform Loewenfeld,3.3.14,no,구두,artifactual,same phoneme,0,None,,a,,s,None,n,0.0226999400183558,,132.33819999732077,,1121.1820000316948,0.0226999400183558,560.2829999988899,2,psycho,1024,2,48000,-16,experiment,999,odd,구름,natural,,153087.39560004324,9784.990899963304,9784.88729998935,,9651.481000008062,4176.728500053287,9784.411399974488,,152355.5917000631,4998.678699950688,153765.0473000249,153765.58470004238,6120.419800048694,152569.3684000289,,153203.28809996136,152335.24040004704,Extended template,0,1.9928007386624813,82,yes,1024
0,0,0.0242710938250803,0.0242710938250803,white,yes,psycho,psycho,psycho,0,uniform,0,undefined,0,a,1,0,85,1,1,0,0,0,0,,85,0,85,85,0,85,1,85,85,Tue Dec  5 17:25:55 2023,A template containing a practice and an experimental phase,yes,언어학과심리실험_B조_기말과제용심리실험.osexp,C:\Users\caphi\Downloads,no,mono,no,18,no,black,no,no,768,psycho,82,82,0,C:\Users\caphi\Downloads\quickrun.csv,psycho,Lentiform Loewenfeld,3.3.14,no,도미노,artifactual,same phoneme,0,None,,a,,s,None,a,0.0217000488191843,,132.33819999732077,,1121.1820000316948,0.0217000488191843,555.570499971509,2,psycho,1024,2,48000,-16,experiment,999,odd,도서,artifactual,,154620.02040003426,9784.990899963304,9784.88729998935,,9651.481000008062,4176.728500053287,9784.411399974488,,153889.33949999046,4998.678699950688,155293.19170000963,155293.73180004768,6120.419800048694,154102.33020002488,,154736.41100001987,153869.617999997,Extended template,0,2.0145007874816656,83,yes,1024
0,0,0.0242428671169493,0.0242428671169493,white,yes,psycho,psycho,psycho,0,uniform,0,undefined,0,n,1,0,86,1,1,0,0,0,0,,86,0,86,86,0,86,1,86,86,Tue Dec  5 17:25:55 2023,A template containing a practice and an experimental phase,yes,언어학과심리실험_B조_기말과제용심리실험.osexp,C:\Users\caphi\Downloads,no,mono,no,18,no,black,no,no,768,psycho,83,83,0,C:\Users\caphi\Downloads\quickrun.csv,psycho,Lentiform Loewenfeld,3.3.14,no,달력,artifactual,same phoneme,0,None,,a,,s,None,n,0.0219000503420829,,132.33819999732077,,1121.1820000316948,0.0219000503420829,838.4382000658661,2,psycho,1024,2,48000,-16,experiment,999,odd,달,natural,,156152.36629999708,9784.990899963304,9784.88729998935,,9651.481000008062,4176.728500053287,9784.411399974488,,155422.3265000619,4998.678699950688,157108.42089995276,157108.977099997,6120.419800048694,155636.7833999684,,156268.66169995628,155400.95190005377,Extended template,0,2.0364008378237486,84,yes,1024
0,0,0.0242447151857263,0.0242447151857263,white,yes,psycho,psycho,psycho,0,uniform,0,undefined,0,a,1,0,87,1,1,0,0,0,0,,87,0,87,87,0,87,1,87,87,Tue Dec  5 17:25:55 2023,A template containing a practice and an experimental phase,yes,언어학과심리실험_B조_기말과제용심리실험.osexp,C:\Users\caphi\Downloads,no,mono,no,18,no,black,no,no,768,psycho,84,84,0,C:\Users\caphi\Downloads\quickrun.csv,psycho,Lentiform Loewenfeld,3.3.14,no,모자,artifactual,no-correlation,0,None,,a,,s,None,a,0.0243999529629945,,132.33819999732077,,1121.1820000316948,0.0243999529629945,558.9220999972895,2,psycho,1024,2,48000,-16,experiment,999,odd,마우스,artifactual,,157970.16669996083,9784.990899963304,9784.88729998935,,9651.481000008062,4176.728500053287,9784.411399974488,,157239.45920006372,4998.678699950688,158645.39700001478,158645.98290005233,6120.419800048694,157453.95540003665,,158085.22999996785,157213.91070005484,Extended template,0,2.060800790786743,85,yes,1024
0,0,0.0242209386860215,0.0242209386860215,white,yes,psycho,psycho,psycho,0,uniform,0,undefined,0,n,1,0,88,1,1,0,0,0,0,,88,0,88,88,0,88,1,88,88,Tue Dec  5 17:25:55 2023,A template containing a practice and an experimental phase,yes,언어학과심리실험_B조_기말과제용심리실험.osexp,C:\Users\caphi\Downloads,no,mono,no,18,no,black,no,no,768,psycho,85,85,0,C:\Users\caphi\Downloads\quickrun.csv,psycho,Lentiform Loewenfeld,3.3.14,no,전구,artifactual,similar-environmental,0,None,,a,,s,None,n,0.0221999362111091,,132.33819999732077,,1121.1820000316948,0.0221999362111091,936.5563000319526,2,psycho,1024,2,48000,-16,experiment,999,odd,빛,natural,,159502.72039999254,9784.990899963304,9784.88729998935,,9651.481000008062,4176.728500053287,9784.411399974488,,158773.21310003754,4998.678699950688,160557.4587000301,160558.02550003864,6120.419800048694,158986.83920002077,,159619.56759996247,158749.32149995584,Extended template,0,2.0830007269978523,86,yes,1024
0,0,0.0241919629404257,0.0241919629404257,white,yes,psycho,psycho,psycho,0,uniform,0,undefined,0,a,1,0,89,1,1,0,0,0,0,,89,0,89,89,0,89,1,89,89,Tue Dec  5 17:25:55 2023,A template containing a practice and an experimental phase,yes,언어학과심리실험_B조_기말과제용심리실험.osexp,C:\Users\caphi\Downloads,no,mono,no,18,no,black,no,no,768,psycho,86,86,0,C:\Users\caphi\Downloads\quickrun.csv,psycho,Lentiform Loewenfeld,3.3.14,no,로봇,artifactual,same phoneme,0,None,,a,,s,None,a,0.0217000488191843,,132.33819999732077,,1121.1820000316948,0.0217000488191843,442.6069998880848,2,psycho,1024,2,48000,-16,experiment,999,odd,로켓,artifactual,,161402.83010003623,9784.990899963304,9784.88729998935,,9651.481000008062,4176.728500053287,9784.411399974488,,160671.4678000426,4998.678699950688,161964.50909995474,161965.06580000278,6120.419800048694,160886.48450002074,,161520.69390006363,160661.68799996376,Extended template,0,2.1047007758170366,87,yes,1024
0,0,0.0241693275959484,0.0241693275959484,white,yes,psycho,psycho,psycho,0,uniform,0,undefined,0,n,0,0,90,1,1,0,0,0,0,,90,0,90,90,0,90,1,90,90,Tue Dec  5 17:25:55 2023,A template containing a practice and an experimental phase,yes,언어학과심리실험_B조_기말과제용심리실험.osexp,C:\Users\caphi\Downloads,no,mono,no,18,no,black,no,no,768,psycho,87,87,0,C:\Users\caphi\Downloads\quickrun.csv,psycho,Lentiform Loewenfeld,3.3.14,no,달,artifactual,same phoneme,0,None,,a,,s,None,a,0.0222000526264309,,132.33819999732077,,1121.1820000316948,0.0222000526264309,897.1675999928266,2,psycho,1024,2,48000,-16,experiment,999,odd,달력,natural,,162819.19259997085,9784.990899963304,9784.88729998935,,9651.481000008062,4176.728500053287,9784.411399974488,,162089.15699995123,4998.678699950688,163836.60929999314,163837.17529999558,6120.419800048694,162303.448199993,,162938.10410005972,162070.69369999226,Extended template,0,2.126900828443468,88,yes,1024
0,0,0.0241528189312038,0.0241528189312038,white,yes,psycho,psycho,psycho,0,uniform,0,undefined,0,n,1,0,91,1,1,0,0,0,0,,91,0,91,91,0,91,1,91,91,Tue Dec  5 17:25:55 2023,A template containing a practice and an experimental phase,yes,언어학과심리실험_B조_기말과제용심리실험.osexp,C:\Users\caphi\Downloads,no,mono,no,18,no,black,no,no,768,psycho,88,88,0,C:\Users\caphi\Downloads\quickrun.csv,psycho,Lentiform Loewenfeld,3.3.14,no,수영,artifactual,similar-environmental,0,None,,a,,s,None,n,0.0227000564336776,,132.33819999732077,,1121.1820000316948,0.0227000564336776,639.8656000383198,2,psycho,1024,2,48000,-16,experiment,999,odd,바다,natural,,164687.09959997796,9784.990899963304,9784.88729998935,,9651.481000008062,4176.728500053287,9784.411399974488,,163955.1348000532,4998.678699950688,165444.49629995506,165445.08960004896,6120.419800048694,164169.97399996035,,164803.50959999487,163939.21830004547,Extended template,0,2.1496008848771453,89,yes,1024
0,0,0.0241288992886741,0.0241288992886741,white,yes,psycho,psycho,psycho,0,uniform,0,undefined,0,a,1,0,92,1,1,0,0,0,0,,92,0,92,92,0,92,1,92,92,Tue Dec  5 17:25:55 2023,A template containing a practice and an experimental phase,yes,언어학과심리실험_B조_기말과제용심리실험.osexp,C:\Users\caphi\Downloads,no,mono,no,18,no,black,no,no,768,psycho,89,89,0,C:\Users\caphi\Downloads\quickrun.csv,psycho,Lentiform Loewenfeld,3.3.14,no,꽃,natural,no-correlation,0,None,,a,,s,None,a,0.0220000511035323,,132.33819999732077,,1121.1820000316948,0.0220000511035323,488.1279000546783,2,psycho,1024,2,48000,-16,experiment,999,odd,풍차,artifactual,,166303.2176999841,9784.990899963304,9784.88729998935,,9651.481000008062,4176.728500053287,9784.411399974488,,165572.60539999697,4998.678699950688,166908.7352999486,166909.35410000384,6120.419800048694,165786.38069995213,,166419.3968999898,165558.46820003353,Extended template,0,2.1716009359806776,90,yes,1024
0,0,0.0241274835419032,0.0241274835419032,white,yes,psycho,psycho,psycho,0,uniform,0,undefined,0,a,1,0,93,1,1,0,0,0,0,,93,0,93,93,0,93,1,93,93,Tue Dec  5 17:25:55 2023,A template containing a practice and an experimental phase,yes,언어학과심리실험_B조_기말과제용심리실험.osexp,C:\Users\caphi\Downloads,no,mono,no,18,no,black,no,no,768,psycho,90,90,0,C:\Users\caphi\Downloads\quickrun.csv,psycho,Lentiform Loewenfeld,3.3.14,no,소나무,natural,same phoneme,0,None,,a,,s,None,a,0.024000066332519,,132.33819999732077,,1121.1820000316948,0.024000066332519,656.6079000476748,2,psycho,1024,2,48000,-16,experiment,999,odd,소방서,artifactual,,167770.1901999535,9784.990899963304,9784.88729998935,,9651.481000008062,4176.728500053287,9784.411399974488,,167038.9590000268,4998.678699950688,168551.12029996235,168551.79329996463,6120.419800048694,167252.84480000846,,167888.10099998955,167028.62180001102,Extended template,0,2.1956010023131967,91,yes,1024
0,0,0.0241032710460864,0.0241032710460864,white,yes,psycho,psycho,psycho,0,uniform,0,undefined,0,a,1,0,94,1,1,0,0,0,0,,94,0,94,94,0,94,1,94,94,Tue Dec  5 17:25:55 2023,A template containing a practice and an experimental phase,yes,언어학과심리실험_B조_기말과제용심리실험.osexp,C:\Users\caphi\Downloads,no,mono,no,18,no,black,no,no,768,psycho,91,91,0,C:\Users\caphi\Downloads\quickrun.csv,psycho,Lentiform Loewenfeld,3.3.14,no,바다,natural,same phoneme,0,None,,a,,s,None,a,0.0218999339267611,,132.33819999732077,,1121.1820000316948,0.0218999339267611,1002.7877000393346,2,psycho,1024,2,48000,-16,experiment,999,odd,바닥,artifactual,,169420.38929997943,9784.990899963304,9784.88729998935,,9651.481000008062,4176.728500053287,9784.411399974488,,168689.06760006212,4998.678699950688,170540.9794000443,170541.56140005216,6120.419800048694,168903.1202000333,,169536.9254000252,168665.8834000118,Extended template,0,2.217500936239958,92,yes,1024
0,0,0.0240752781410851,0.0240752781410851,white,yes,psycho,psycho,psycho,0,uniform,0,undefined,0,a,1,0,95,1,1,0,0,0,0,,95,0,95,95,0,95,1,95,95,Tue Dec  5 17:25:55 2023,A template containing a practice and an experimental phase,yes,언어학과심리실험_B조_기말과제용심리실험.osexp,C:\Users\caphi\Downloads,no,mono,no,18,no,black,no,no,768,psycho,92,92,0,C:\Users\caphi\Downloads\quickrun.csv,psycho,Lentiform Loewenfeld,3.3.14,no,피자,artifactual,similar-environmental,0,None,,a,,s,None,a,0.0214999308809638,,132.33819999732077,,1121.1820000316948,0.0214999308809638,532.6862999936566,2,psycho,1024,2,48000,-16,experiment,999,odd,파스타,artifactual,,171403.2128000399,9784.990899963304,9784.88729998935,,9651.481000008062,4176.728500053287,9784.411399974488,,170672.9322000174,4998.678699950688,172052.94800002594,172053.53889998514,6120.419800048694,170886.6172999842,,171518.9868999878,170656.93499997724,Extended template,0,2.2390008671209216,93,yes,1024
0,0,0.0240989450484197,0.0240989450484197,white,yes,psycho,psycho,psycho,0,uniform,0,undefined,0,n,1,0,96,1,1,0,0,0,0,,96,0,96,96,0,96,1,96,96,Tue Dec  5 17:25:55 2023,A template containing a practice and an experimental phase,yes,언어학과심리실험_B조_기말과제용심리실험.osexp,C:\Users\caphi\Downloads,no,mono,no,18,no,black,no,no,768,psycho,93,93,0,C:\Users\caphi\Downloads\quickrun.csv,psycho,Lentiform Loewenfeld,3.3.14,no,호수,natural,no-correlation,0,None,,a,,s,None,n,0.0262999674305319,,132.33819999732077,,1121.1820000316948,0.0262999674305319,504.4796000001952,2,psycho,1024,2,48000,-16,experiment,999,odd,소나무,natural,,172902.78660005424,9784.990899963304,9784.88729998935,,9651.481000008062,4176.728500053287,9784.411399974488,,172173.85200003628,4998.678699950688,173525.03330004402,173525.65359999426,6120.419800048694,172386.91790006123,,173019.1486000549,172156.90659999382,Extended template,0,2.2653008345514536,94,yes,1024
0,0,0.0240705343649575,0.0240705343649575,white,yes,psycho,psycho,psycho,0,uniform,0,undefined,0,a,0,0,97,1,1,0,0,0,0,,97,0,97,97,0,97,1,97,97,Tue Dec  5 17:25:55 2023,A template containing a practice and an experimental phase,yes,언어학과심리실험_B조_기말과제용심리실험.osexp,C:\Users\caphi\Downloads,no,mono,no,18,no,black,no,no,768,psycho,94,94,0,C:\Users\caphi\Downloads\quickrun.csv,psycho,Lentiform Loewenfeld,3.3.14,no,구름,natural,same phoneme,0,None,,a,,s,None,n,0.0213999301195144,,132.33819999732077,,1121.1820000316948,0.0213999301195144,628.6724999081343,2,psycho,1024,2,48000,-16,experiment,999,odd,구슬,artifactual,,174386.8770999834,9784.990899963304,9784.88729998935,,9651.481000008062,4176.728500053287,9784.411399974488,,173656.37330000754,4998.678699950688,175132.81800004188,175133.4212999791,6120.419800048694,173870.87970005814,,174502.98940006178,173630.85269997828,Extended template,0,2.286700764670968,95,yes,1024
0,0,0.0240500085055828,0.0240500085055828,white,yes,psycho,psycho,psycho,0,uniform,0,undefined,0,n,1,0,98,1,1,0,0,0,0,,98,0,98,98,0,98,1,98,98,Tue Dec  5 17:25:55 2023,A template containing a practice and an experimental phase,yes,언어학과심리실험_B조_기말과제용심리실험.osexp,C:\Users\caphi\Downloads,no,mono,no,18,no,black,no,no,768,psycho,95,95,0,C:\Users\caphi\Downloads\quickrun.csv,psycho,Lentiform Loewenfeld,3.3.14,no,세금,artifactual,same phoneme,0,None,,a,,s,None,n,0.0221000518649816,,132.33819999732077,,1121.1820000316948,0.0221000518649816,701.0032000252977,2,psycho,1024,2,48000,-16,experiment,999,odd,세포,natural,,175986.2496999558,9784.990899963304,9784.88729998935,,9651.481000008062,4176.728500053287,9784.411399974488,,175256.521500065,4998.678699950688,176805.12699997053,176805.72379997466,6120.419800048694,175469.70669995062,,176102.84379997756,175232.7621000586,Extended template,0,2.3088008165359497,96,yes,1024
0,0,0.0241206269999293,0.0241206269999293,white,yes,psycho,psycho,psycho,0,uniform,0,undefined,0,n,1,0,99,1,1,0,0,0,0,,99,0,99,99,0,99,1,99,99,Tue Dec  5 17:25:55 2023,A template containing a practice and an experimental phase,yes,언어학과심리실험_B조_기말과제용심리실험.osexp,C:\Users\caphi\Downloads,no,mono,no,18,no,black,no,no,768,psycho,96,96,0,C:\Users\caphi\Downloads\quickrun.csv,psycho,Lentiform Loewenfeld,3.3.14,no,물고기,natural,no-correlation,0,None,,a,,s,None,n,0.0309000024572014,,132.33819999732077,,1121.1820000316948,0.0309000024572014,1026.6954000107944,2,psycho,1024,2,48000,-16,experiment,999,odd,밤하늘,natural,,177653.1410999596,9784.990899963304,9784.88729998935,,9651.481000008062,4176.728500053287,9784.411399974488,,176923.76659996808,4998.678699950688,178797.19930002466,178797.8139000479,6120.419800048694,177136.90479996148,,177769.20330000576,176910.6356999837,Extended template,0,2.339700818993151,97,yes,1024
0,0,0.024090825142909,0.024090825142909,white,yes,psycho,psycho,psycho,0,uniform,0,undefined,0,n,1,0,100,1,1,0,0,0,0,,100,0,100,100,0,100,1,100,100,Tue Dec  5 17:25:55 2023,A template containing a practice and an experimental phase,yes,언어학과심리실험_B조_기말과제용심리실험.osexp,C:\Users\caphi\Downloads,no,mono,no,18,no,black,no,no,768,psycho,97,97,0,C:\Users\caphi\Downloads\quickrun.csv,psycho,Lentiform Loewenfeld,3.3.14,no,가을,natural,similar-environmental,0,None,,a,,s,None,n,0.0212000450119376,,132.33819999732077,,1121.1820000316948,0.0212000450119376,930.0488999579102,2,psycho,1024,2,48000,-16,experiment,999,odd,낙엽,natural,,179655.84709995892,9784.990899963304,9784.88729998935,,9651.481000008062,4176.728500053287,9784.411399974488,,178922.37349995412,4998.678699950688,180701.12410001457,180701.7453999724,6120.419800048694,179136.365900049,,179769.8811000446,178903.2087000087,Extended template,0,2.360900864005089,98,yes,1024
0,0,0.0240899072113362,0.0240899072113362,white,yes,psycho,psycho,psycho,0,uniform,0,undefined,0,n,1,0,101,1,1,0,0,0,0,,101,0,101,101,0,101,1,101,101,Tue Dec  5 17:25:55 2023,A template containing a practice and an experimental phase,yes,언어학과심리실험_B조_기말과제용심리실험.osexp,C:\Users\caphi\Downloads,no,mono,no,18,no,black,no,no,768,psycho,98,98,0,C:\Users\caphi\Downloads\quickrun.csv,psycho,Lentiform Loewenfeld,3.3.14,no,태양계,natural,inclusive,0,None,,a,,s,None,n,0.0239999499171972,,132.33819999732077,,1121.1820000316948,0.0239999499171972,1253.3107000635937,2,psycho,1024,2,48000,-16,experiment,999,odd,목성,natural,,181553.8419999648,9784.990899963304,9784.88729998935,,9651.481000008062,4176.728500053287,9784.411399974488,,180822.6105000358,4998.678699950688,182926.37180001475,182927.0251999842,6120.419800048694,181036.99389996476,,181671.61510000005,180812.7686999505,Extended template,0,2.384900813922286,99,yes,1024
0,0,0.0240820087492465,0.0240820087492465,white,yes,psycho,psycho,psycho,0,uniform,0,undefined,0,n,1,0,102,1,1,0,0,0,0,,102,0,102,102,0,102,1,102,102,Tue Dec  5 17:25:55 2023,A template containing a practice and an experimental phase,yes,언어학과심리실험_B조_기말과제용심리실험.osexp,C:\Users\caphi\Downloads,no,mono,no,18,no,black,no,no,768,psycho,99,99,0,C:\Users\caphi\Downloads\quickrun.csv,psycho,Lentiform Loewenfeld,3.3.14,no,산,natural,similar-environmental,0,None,,a,,s,None,n,0.0233000610023736,,132.33819999732077,,1121.1820000316948,0.0233000610023736,1555.982300080359,2,psycho,1024,2,48000,-16,experiment,999,odd,계곡,natural,,183787.1130000567,9784.990899963304,9784.88729998935,,9651.481000008062,4176.728500053287,9784.411399974488,,183056.79599998984,4998.678699950688,185461.1501999898,185461.8037999608,6120.419800048694,183269.90930002648,,183903.89069996309,183031.98390000037,Extended template,0,2.40820087492466,100,yes,1024
0,0,0.0240772358593669,0.0240772358593669,white,yes,psycho,psycho,psycho,0,uniform,0,undefined,0,a,1,0,103,1,1,0,0,0,0,,103,0,103,103,0,103,1,103,103,Tue Dec  5 17:25:55 2023,A template containing a practice and an experimental phase,yes,언어학과심리실험_B조_기말과제용심리실험.osexp,C:\Users\caphi\Downloads,no,mono,no,18,no,black,no,no,768,psycho,100,100,0,C:\Users\caphi\Downloads\quickrun.csv,psycho,Lentiform Loewenfeld,3.3.14,no,선설수,non-word,non-word,0,None,,a,,s,None,a,0.0235999468713998,,132.33819999732077,,1121.1820000316948,0.0235999468713998,2534.833300043829,2,psycho,1024,2,48000,-16,experiment,999,odd,시계,artifactual,,186319.85390000045,9784.990899963304,9784.88729998935,,9651.481000008062,4176.728500053287,9784.411399974488,,185590.1057999581,4998.678699950688,188973.4769000206,188974.096299964,6120.419800048694,185804.0747999912,,186437.17229994945,185564.02559997517,Extended template,0,2.43180082179606,101,yes,1024
0,0,0.0240607929014253,0.0240607929014253,white,yes,psycho,psycho,psycho,0,uniform,0,undefined,0,n,1,0,104,1,1,0,0,0,0,,104,0,104,104,0,104,1,104,104,Tue Dec  5 17:25:55 2023,A template containing a practice and an experimental phase,yes,언어학과심리실험_B조_기말과제용심리실험.osexp,C:\Users\caphi\Downloads,no,mono,no,18,no,black,no,no,768,psycho,101,101,0,C:\Users\caphi\Downloads\quickrun.csv,psycho,Lentiform Loewenfeld,3.3.14,no,바닥,artifactual,same phoneme,0,None,,a,,s,None,n,0.0224000541493296,,132.33819999732077,,1121.1820000316948,0.0224000541493296,996.0433999076486,2,psycho,1024,2,48000,-16,experiment,999,odd,바다,natural,,189820.30869997104,9784.990899963304,9784.88729998935,,9651.481000008062,4176.728500053287,9784.411399974488,,189089.65970005371,4998.678699950688,190934.1512999963,190934.7918999847,6120.419800048694,189304.0831000544,,189936.65180006064,189079.1321999859,Extended template,0,2.4542008759453893,102,yes,1024
0,0,0.0240747654105274,0.0240747654105274,white,yes,psycho,psycho,psycho,0,uniform,0,undefined,0,n,1,0,105,1,1,0,0,0,0,,105,0,105,105,0,105,1,105,105,Tue Dec  5 17:25:55 2023,A template containing a practice and an experimental phase,yes,언어학과심리실험_B조_기말과제용심리실험.osexp,C:\Users\caphi\Downloads,no,mono,no,18,no,black,no,no,768,psycho,102,102,0,C:\Users\caphi\Downloads\quickrun.csv,psycho,Lentiform Loewenfeld,3.3.14,no,오일,natural,same phoneme,0,None,,a,,s,None,n,0.0254999613389372,,132.33819999732077,,1121.1820000316948,0.0254999613389372,2796.5301000513136,2,psycho,1024,2,48000,-16,experiment,999,odd,오리,natural,,191787.3981000157,9784.990899963304,9784.88729998935,,9651.481000008062,4176.728500053287,9784.411399974488,,191056.94829998535,4998.678699950688,194701.67290000245,194702.3420999758,6120.419800048694,191269.69440001997,,191903.7225999637,191037.2163000284,Extended template,0,2.4797008372843266,103,yes,1024
0,0,0.0240567393260649,0.0240567393260649,white,yes,psycho,psycho,psycho,0,uniform,0,undefined,0,a,1,0,106,1,1,0,0,0,0,,106,0,106,106,0,106,1,106,106,Tue Dec  5 17:25:55 2023,A template containing a practice and an experimental phase,yes,언어학과심리실험_B조_기말과제용심리실험.osexp,C:\Users\caphi\Downloads,no,mono,no,18,no,black,no,no,768,psycho,103,103,0,C:\Users\caphi\Downloads\quickrun.csv,psycho,Lentiform Loewenfeld,3.3.14,no,향수,artifactual,no-correlation,0,None,,a,,s,None,a,0.0222000526264309,,132.33819999732077,,1121.1820000316948,0.0222000526264309,550.529999891296,2,psycho,1024,2,48000,-16,experiment,999,odd,선풍기,artifactual,,195555.43299997225,9784.990899963304,9784.88729998935,,9651.481000008062,4176.728500053287,9784.411399974488,,194824.29619994943,4998.678699950688,196222.0231000101,196222.6895999629,6120.419800048694,195037.8821999766,,195670.155000058,194808.6946000112,Extended template,0,2.501900889910757,104,yes,1024
