"acc","accuracy","average_response_time","avg_rt","background","bidi","canvas_backend","clock_backend","color_backend","compensation","coordinates","correct","correct_instructions","correct_keyboard_response","correct_response","correct_target","count_about_this_template","count_blank","count_block_loop","count_block_sequence","count_end_of_experiment","count_end_of_practice","count_experiment","count_experimental_loop","count_feedback","count_fixation","count_instructions","count_keyboard_response","count_logger","count_practice_loop","count_prime","count_reset_feedback","count_target","count_trial_sequence","datetime","description","disable_garbage_collection","experiment_file","experiment_path","font_bold","font_family","font_italic","font_size","font_underline","foreground","form_clicks","fullscreen","height","keyboard_backend","live_row","live_row_block_loop","live_row_practice_loop","logfile","mouse_backend","opensesame_codename","opensesame_version","practice","prime","prime_condition","relation","repeat_cycle","response","response_end_of_experiment","response_end_of_practice","response_feedback","response_instructions","response_keyboard_response","response_target","response_time","response_time_end_of_experiment","response_time_end_of_practice","response_time_feedback","response_time_instructions","response_time_keyboard_response","response_time_target","round_decimals","sampler_backend","sound_buf_size","sound_channels","sound_freq","sound_sample_size","start","subject_nr","subject_parity","target","target_condition","time_about_this_template","time_blank","time_block_loop","time_block_sequence","time_end_of_experiment","time_end_of_practice","time_experiment","time_experimental_loop","time_feedback","time_fixation","time_instructions","time_keyboard_response","time_logger","time_practice_loop","time_prime","time_reset_feedback","time_target","time_trial_sequence","title","total_correct","total_response_time","total_responses","uniform_coordinates","width"
"0","0","0.024600070901215076","0.024600070901215076","white","yes","psycho","psycho","psycho","0","uniform","0","undefined","0","n","1","0","0","0","0","0","0","0","0","NA","0","0","0","0","0","0","0","0","0","Wed Nov 29 10:05:17 2023","A template containing a practice and an experimental phase","yes","언어학과심리실험_B조_기말과제용심리실험.osexp","E:\2023년도 1학기\언어학과심리실험","no","mono","no","18","no","black","no","no","768","psycho","0","0","0","E:\2023년도 1학기\언어학과심리실험\quickrun.csv","psycho","Lentiform Loewenfeld","3.3.14","yes","산","natural","similar-environmental","0","None","NA","NA","NA","n","None","n","0.024600070901215076","NA","NA","NA","5541.749100084417","0.024600070901215076","1709.0303999138996","2","psycho","1024","2","48000","-16","experiment","999","odd","계곡","natural","NA","13345.909100025892","12555.90740009211","12555.804200004786","NA","NA","6922.592999995686","NA","NA","12634.863700019196","7012.5683000078425","15159.266100032255","15159.395100083202","12555.29100005515","12841.794200008735","NA","13449.330100091174","12622.650400036946","Extended template","0","0.024600070901215076","1","yes","1024"
"0","0","0.020200037397444248","0.020200037397444248","white","yes","psycho","psycho","psycho","0","uniform","0","undefined","0","a","1","0","1","0","0","0","0","0","0","NA","1","0","1","1","0","1","0","1","1","Wed Nov 29 10:05:17 2023","A template containing a practice and an experimental phase","yes","언어학과심리실험_B조_기말과제용심리실험.osexp","E:\2023년도 1학기\언어학과심리실험","no","mono","no","18","no","black","no","no","768","psycho","1","1","0","E:\2023년도 1학기\언어학과심리실험\quickrun.csv","psycho","Lentiform Loewenfeld","3.3.14","yes","해변","natural","similar-environmental","0","None","NA","NA","NA","n","None","a","0.01580000389367342","NA","NA","NA","5541.749100084417","0.01580000389367342","968.8260999973863","2","psycho","1024","2","48000","-16","experiment","999","odd","파라솔","artifactual","NA","15980.630500009283","12555.90740009211","12555.804200004786","NA","NA","6922.592999995686","NA","NA","15265.370900044218","7012.5683000078425","17055.08469999768","17055.18280004617","12555.29100005515","15471.626200014725","NA","16085.575800039805","15252.433500019833","Extended template","0","0.040400074794888496","2","yes","1024"
"0","0","0.018933361085752647","0.018933361085752647","white","yes","psycho","psycho","psycho","0","uniform","0","undefined","0","n","1","0","2","0","0","0","0","0","0","NA","2","0","2","2","0","2","0","2","2","Wed Nov 29 10:05:17 2023","A template containing a practice and an experimental phase","yes","언어학과심리실험_B조_기말과제용심리실험.osexp","E:\2023년도 1학기\언어학과심리실험","no","mono","no","18","no","black","no","no","768","psycho","2","2","0","E:\2023년도 1학기\언어학과심리실험\quickrun.csv","psycho","Lentiform Loewenfeld","3.3.14","yes","숲","natural","inclusive","0","None","NA","NA","NA","n","None","n","0.016400008462369442","NA","NA","NA","5541.749100084417","0.016400008462369442","1208.5288999369368","2","psycho","1024","2","48000","-16","experiment","999","odd","나무","natural","NA","17860.502500087023","12555.90740009211","12555.804200004786","NA","NA","6922.592999995686","NA","NA","17136.97630004026","7012.5683000078425","19174.955400056206","19175.05479999818","12555.29100005515","17352.97130001709","NA","17965.900900075212","17129.42800007295","Extended template","0","0.05680008325725794","3","yes","1024"
"0","0","0.016000005416572094","0.016000005416572094","white","yes","psycho","psycho","psycho","0","uniform","0","undefined","0","n","1","0","3","1","1","0","0","0","0","NA","3","0","3","3","0","3","1","3","3","Wed Nov 29 10:05:17 2023","A template containing a practice and an experimental phase","yes","언어학과심리실험_B조_기말과제용심리실험.osexp","E:\2023년도 1학기\언어학과심리실험","no","mono","no","18","no","black","no","no","768","psycho","0","0","0","E:\2023년도 1학기\언어학과심리실험\quickrun.csv","psycho","Lentiform Loewenfeld","3.3.14","no","달력","artifactual","same phoneme","0","None","NA","n","NA","n","None","n","0.016000005416572094","NA","1177.1223999094218","NA","5541.749100084417","0.016000005416572094","856.9080999586731","2","psycho","1024","2","48000","-16","experiment","999","odd","달","natural","NA","21204.606399987824","20435.483500012197","20435.440800036304","NA","19257.25810008589","6922.592999995686","20435.005400096998","NA","20489.586100098677","7012.5683000078425","22166.99920000974","22167.100200080313","12555.29100005515","20695.60860004276","NA","21309.485800098628","20481.200100039132","Extended template","0","0.016000005416572094","1","yes","1024"
"0","0","0.01575000351294875","0.01575000351294875","white","yes","psycho","psycho","psycho","0","uniform","0","undefined","0","a","1","0","4","1","1","0","0","0","0","NA","4","0","4","4","0","4","1","4","4","Wed Nov 29 10:05:17 2023","A template containing a practice and an experimental phase","yes","언어학과심리실험_B조_기말과제용심리실험.osexp","E:\2023년도 1학기\언어학과심리실험","no","mono","no","18","no","black","no","no","768","psycho","1","1","0","E:\2023년도 1학기\언어학과심리실험\quickrun.csv","psycho","Lentiform Loewenfeld","3.3.14","no","안음풍","non-word","non-word","0","None","NA","n","NA","n","None","a","0.015500001609325409","NA","1177.1223999094218","NA","5541.749100084417","0.015500001609325409","1533.199300058186","2","psycho","1024","2","48000","-16","experiment","999","odd","의자","artifactual","NA","22968.28540007118","20435.483500012197","20435.440800036304","NA","19257.25810008589","6922.592999995686","20435.005400096998","NA","22252.75690003764","7012.5683000078425","24606.780800037086","24606.883500004187","12555.29100005515","22458.86100002099","NA","23073.13040003646","22241.377099999227","Extended template","0","0.0315000070258975","2","yes","1024"
"0","0","0.018233355755607288","0.018233355755607288","white","yes","psycho","psycho","psycho","0","uniform","0","undefined","0","n","1","0","5","1","1","0","0","0","0","NA","5","0","5","5","0","5","1","5","5","Wed Nov 29 10:05:17 2023","A template containing a practice and an experimental phase","yes","언어학과심리실험_B조_기말과제용심리실험.osexp","E:\2023년도 1학기\언어학과심리실험","no","mono","no","18","no","black","no","no","768","psycho","2","2","0","E:\2023년도 1학기\언어학과심리실험\quickrun.csv","psycho","Lentiform Loewenfeld","3.3.14","no","꽃","natural","inclusive","0","None","NA","n","NA","n","None","n","0.02320006024092436","NA","1177.1223999094218","NA","5541.749100084417","0.02320006024092436","1099.1884999675676","2","psycho","1024","2","48000","-16","experiment","999","odd","해바라기","natural","NA","25421.94690008182","20435.483500012197","20435.440800036304","NA","19257.25810008589","6922.592999995686","20435.005400096998","NA","24706.949200015515","7012.5683000078425","26627.170699997805","26627.334300079383","12555.29100005515","24913.225900032558","NA","25527.251600055024","24694.552800036035","Extended template","0","0.05470006726682186","3","yes","1024"
"0","0","0.01780001912266016","0.01780001912266016","white","yes","psycho","psycho","psycho","0","uniform","0","undefined","0","n","1","0","6","1","1","0","0","0","0","NA","6","0","6","6","0","6","1","6","6","Wed Nov 29 10:05:17 2023","A template containing a practice and an experimental phase","yes","언어학과심리실험_B조_기말과제용심리실험.osexp","E:\2023년도 1학기\언어학과심리실험","no","mono","no","18","no","black","no","no","768","psycho","3","3","0","E:\2023년도 1학기\언어학과심리실험\quickrun.csv","psycho","Lentiform Loewenfeld","3.3.14","no","호수","natural","same phoneme","0","None","NA","n","NA","n","None","n","0.01650000922381878","NA","1177.1223999094218","NA","5541.749100084417","0.01650000922381878","711.4913000259548","2","psycho","1024","2","48000","-16","experiment","999","odd","호랑이","natural","NA","27443.506799987517","20435.483500012197","20435.440800036304","NA","19257.25810008589","6922.592999995686","20435.005400096998","NA","26727.89640002884","7012.5683000078425","28262.84450001549","28262.954400037415","12555.29100005515","26933.79190005362","NA","27550.828600069508","26719.72250007093","Extended template","0","0.07120007649064064","4","yes","1024"
"0","0","0.017380015924572945","0.017380015924572945","white","yes","psycho","psycho","psycho","0","uniform","0","undefined","0","a","1","0","7","1","1","0","0","0","0","NA","7","0","7","7","0","7","1","7","7","Wed Nov 29 10:05:17 2023","A template containing a practice and an experimental phase","yes","언어학과심리실험_B조_기말과제용심리실험.osexp","E:\2023년도 1학기\언어학과심리실험","no","mono","no","18","no","black","no","no","768","psycho","4","4","0","E:\2023년도 1학기\언어학과심리실험\quickrun.csv","psycho","Lentiform Loewenfeld","3.3.14","no","교통","artifactual","inclusive","0","None","NA","n","NA","n","None","a","0.015700003132224083","NA","1177.1223999094218","NA","5541.749100084417","0.015700003132224083","1100.4439999815077","2","psycho","1024","2","48000","-16","experiment","999","odd","자동차","artifactual","NA","29073.919799993746","20435.483500012197","20435.440800036304","NA","19257.25810008589","6922.592999995686","20435.005400096998","NA","28358.521800022572","7012.5683000078425","30282.895700074732","30283.008700003847","12555.29100005515","28564.452800084837","NA","29181.87100009527","28347.34470001422","Extended template","0","0.08690007962286472","5","yes","1024"
"0","0","0.01706668020536502","0.01706668020536502","white","yes","psycho","psycho","psycho","0","uniform","0","undefined","0","n","1","0","8","1","1","0","0","0","0","NA","8","0","8","8","0","8","1","8","8","Wed Nov 29 10:05:17 2023","A template containing a practice and an experimental phase","yes","언어학과심리실험_B조_기말과제용심리실험.osexp","E:\2023년도 1학기\언어학과심리실험","no","mono","no","18","no","black","no","no","768","psycho","5","5","0","E:\2023년도 1학기\언어학과심리실험\quickrun.csv","psycho","Lentiform Loewenfeld","3.3.14","no","과일","natural","inclusive","0","None","NA","n","NA","n","None","n","0.015500001609325409","NA","1177.1223999094218","NA","5541.749100084417","0.015500001609325409","1214.47010000702","2","psycho","1024","2","48000","-16","experiment","999","odd","사과","natural","NA","31087.059700046666","20435.483500012197","20435.440800036304","NA","19257.25810008589","6922.592999995686","20435.005400096998","NA","30371.88300001435","7012.5683000078425","32406.94120002445","32407.059799996205","12555.29100005515","30578.122900100425","NA","31191.91460008733","30358.765700017102","Extended template","0","0.10240008123219013","6","yes","1024"
"0","0","0.01691429809268032","0.01691429809268032","white","yes","psycho","psycho","psycho","0","uniform","0","undefined","0","n","1","0","9","1","1","0","0","0","0","NA","9","0","9","9","0","9","1","9","9","Wed Nov 29 10:05:17 2023","A template containing a practice and an experimental phase","yes","언어학과심리실험_B조_기말과제용심리실험.osexp","E:\2023년도 1학기\언어학과심리실험","no","mono","no","18","no","black","no","no","768","psycho","6","6","0","E:\2023년도 1학기\언어학과심리실험\quickrun.csv","psycho","Lentiform Loewenfeld","3.3.14","no","장슈","non-word","non-word","0","None","NA","n","NA","n","None","n","0.016000005416572094","NA","1177.1223999094218","NA","5541.749100084417","0.016000005416572094","785.115799983032","2","psycho","1024","2","48000","-16","experiment","999","odd","다람쥐","natural","NA","33208.15120008774","20435.483500012197","20435.440800036304","NA","19257.25810008589","6922.592999995686","20435.005400096998","NA","32493.677400052547","7012.5683000078425","34098.93350000493","34099.054599995725","12555.29100005515","32699.821099988185","NA","33313.27600008808","32481.825800030492","Extended template","0","0.11840008664876223","7","yes","1024"
"0","0","0.01680001150816679","0.01680001150816679","white","yes","psycho","psycho","psycho","0","uniform","0","undefined","0","n","1","0","10","1","1","0","0","0","0","NA","10","0","10","10","0","10","1","10","10","Wed Nov 29 10:05:17 2023","A template containing a practice and an experimental phase","yes","언어학과심리실험_B조_기말과제용심리실험.osexp","E:\2023년도 1학기\언어학과심리실험","no","mono","no","18","no","black","no","no","768","psycho","7","7","0","E:\2023년도 1학기\언어학과심리실험\quickrun.csv","psycho","Lentiform Loewenfeld","3.3.14","no","구두","artifactual","same phoneme","0","None","NA","n","NA","n","None","n","0.016000005416572094","NA","1177.1223999094218","NA","5541.749100084417","0.016000005416572094","850.141100003384","2","psycho","1024","2","48000","-16","experiment","999","odd","구름","natural","NA","34896.849300013855","20435.483500012197","20435.440800036304","NA","19257.25810008589","6922.592999995686","20435.005400096998","NA","34181.63510004524","7012.5683000078425","35855.14780005906","35855.274100089446","12555.29100005515","34387.80470006168","NA","35004.24770009704","34171.11990007106","Extended template","0","0.13440009206533432","8","yes","1024"
"0","0","0.017300015315413475","0.017300015315413475","white","yes","psycho","psycho","psycho","0","uniform","0","undefined","0","n","1","0","11","1","1","0","0","0","0","NA","11","0","11","11","0","11","1","11","11","Wed Nov 29 10:05:17 2023","A template containing a practice and an experimental phase","yes","언어학과심리실험_B조_기말과제용심리실험.osexp","E:\2023년도 1학기\언어학과심리실험","no","mono","no","18","no","black","no","no","768","psycho","8","8","0","E:\2023년도 1학기\언어학과심리실험\quickrun.csv","psycho","Lentiform Loewenfeld","3.3.14","no","바닥","artifactual","same phoneme","0","None","NA","n","NA","n","None","n","0.021300045773386955","NA","1177.1223999094218","NA","5541.749100084417","0.021300045773386955","773.136300034821","2","psycho","1024","2","48000","-16","experiment","999","odd","바다","natural","NA","36652.30070007965","20435.483500012197","20435.440800036304","NA","19257.25810008589","6922.592999995686","20435.005400096998","NA","35936.98430003133","7012.5683000078425","37530.873400042765","37531.02860006038","12555.29100005515","36143.18130002357","NA","36757.19220004976","35929.53120009042","Extended template","0","0.15570013783872128","9","yes","1024"
"0","0","0.017270015086978674","0.017270015086978674","white","yes","psycho","psycho","psycho","0","uniform","0","undefined","0","a","1","0","12","1","1","0","0","0","0","NA","12","0","12","12","0","12","1","12","12","Wed Nov 29 10:05:17 2023","A template containing a practice and an experimental phase","yes","언어학과심리실험_B조_기말과제용심리실험.osexp","E:\2023년도 1학기\언어학과심리실험","no","mono","no","18","no","black","no","no","768","psycho","9","9","0","E:\2023년도 1학기\언어학과심리실험\quickrun.csv","psycho","Lentiform Loewenfeld","3.3.14","no","성냥","artifactual","same phoneme","0","None","NA","n","NA","n","None","a","0.017000013031065464","NA","1177.1223999094218","NA","5541.749100084417","0.017000013031065464","885.2158000227064","2","psycho","1024","2","48000","-16","experiment","999","odd","성적표","artifactual","NA","38332.34170009382","20435.483500012197","20435.440800036304","NA","19257.25810008589","6922.592999995686","20435.005400096998","NA","37617.40940005984","7012.5683000078425","39326.95140002761","39327.088800026104","12555.29100005515","37824.8397000134","NA","38441.15329999477","37603.23200002313","Extended template","0","0.17270015086978674","10","yes","1024"
"0","0","0.017018194987692616","0.017018194987692616","white","yes","psycho","psycho","psycho","0","uniform","0","undefined","0","a","1","0","13","1","1","0","0","0","0","NA","13","0","13","13","0","13","1","13","13","Wed Nov 29 10:05:17 2023","A template containing a practice and an experimental phase","yes","언어학과심리실험_B조_기말과제용심리실험.osexp","E:\2023년도 1학기\언어학과심리실험","no","mono","no","18","no","black","no","no","768","psycho","10","10","0","E:\2023년도 1학기\언어학과심리실험\quickrun.csv","psycho","Lentiform Loewenfeld","3.3.14","no","피자","artifactual","similar-environmental","0","None","NA","n","NA","n","None","a","0.014499993994832039","NA","1177.1223999094218","NA","5541.749100084417","0.014499993994832039","1035.9154000179842","2","psycho","1024","2","48000","-16","experiment","999","odd","파스타","artifactual","NA","40137.54820008762","20435.483500012197","20435.440800036304","NA","19257.25810008589","6922.592999995686","20435.005400096998","NA","39422.58650006261","7012.5683000078425","41278.946300037205","41279.080700012855","12555.29100005515","39628.98889998905","NA","40242.449300014414","39412.89840009995","Extended template","0","0.18720014486461878","11","yes","1024"
"0","0","0.01697501284070313","0.01697501284070313","white","yes","psycho","psycho","psycho","0","uniform","0","undefined","0","a","1","0","14","1","1","0","0","0","0","NA","14","0","14","14","0","14","1","14","14","Wed Nov 29 10:05:17 2023","A template containing a practice and an experimental phase","yes","언어학과심리실험_B조_기말과제용심리실험.osexp","E:\2023년도 1학기\언어학과심리실험","no","mono","no","18","no","black","no","no","768","psycho","11","11","0","E:\2023년도 1학기\언어학과심리실험\quickrun.csv","psycho","Lentiform Loewenfeld","3.3.14","no","계곡","natural","no-correlation","0","None","NA","n","NA","n","None","a","0.01650000922381878","NA","1177.1223999094218","NA","5541.749100084417","0.01650000922381878","731.3015001127496","2","psycho","1024","2","48000","-16","experiment","999","odd","화장실","artifactual","NA","42084.12080002017","20435.483500012197","20435.440800036304","NA","19257.25810008589","6922.592999995686","20435.005400096998","NA","41368.70880005881","7012.5683000078425","42923.65570005495","42923.79890009761","12555.29100005515","41576.26910007093","NA","42191.03029998951","41356.35000001639","Extended template","0","0.20370015408843756","12","yes","1024"
"0","0","0.01690770463588146","0.01690770463588146","white","yes","psycho","psycho","psycho","0","uniform","0","undefined","0","n","1","0","15","1","1","0","0","0","0","NA","15","0","15","15","0","15","1","15","15","Wed Nov 29 10:05:17 2023","A template containing a practice and an experimental phase","yes","언어학과심리실험_B조_기말과제용심리실험.osexp","E:\2023년도 1학기\언어학과심리실험","no","mono","no","18","no","black","no","no","768","psycho","12","12","0","E:\2023년도 1학기\언어학과심리실험\quickrun.csv","psycho","Lentiform Loewenfeld","3.3.14","no","호수","natural","no-correlation","0","None","NA","n","NA","n","None","n","0.01610000617802143","NA","1177.1223999094218","NA","5541.749100084417","0.01610000617802143","822.3887999774888","2","psycho","1024","2","48000","-16","experiment","999","odd","소나무","natural","NA","43723.04020007141","20435.483500012197","20435.440800036304","NA","19257.25810008589","6922.592999995686","20435.005400096998","NA","43007.615600014105","7012.5683000078425","44650.898799998686","44651.04660007637","12555.29100005515","43213.65560009144","NA","43827.885500038974","42998.577299993485","Extended template","0","0.219800160266459","13","yes","1024"
"0","0","0.016835726065827266","0.016835726065827266","white","yes","psycho","psycho","psycho","0","uniform","0","undefined","0","a","1","0","16","1","1","0","0","0","0","NA","16","0","16","16","0","16","1","16","16","Wed Nov 29 10:05:17 2023","A template containing a practice and an experimental phase","yes","언어학과심리실험_B조_기말과제용심리실험.osexp","E:\2023년도 1학기\언어학과심리실험","no","mono","no","18","no","black","no","no","768","psycho","13","13","0","E:\2023년도 1학기\언어학과심리실험\quickrun.csv","psycho","Lentiform Loewenfeld","3.3.14","no","호수","natural","no-correlation","0","None","NA","n","NA","n","None","a","0.015900004655122757","NA","1177.1223999094218","NA","5541.749100084417","0.015900004655122757","693.8009000150487","2","psycho","1024","2","48000","-16","experiment","999","odd","화장실","artifactual","NA","45453.1131000258","20435.483500012197","20435.440800036304","NA","19257.25810008589","6922.592999995686","20435.005400096998","NA","44737.84290009644","7012.5683000078425","46254.826400079764","46254.97580005322","12555.29100005515","44944.09100001212","NA","45560.52619998809","44724.99180003069","Extended template","0","0.23570016492158175","14","yes","1024"
"0","0","0.016733344333867233","0.016733344333867233","white","yes","psycho","psycho","psycho","0","uniform","0","undefined","0","n","1","0","17","1","1","0","0","0","0","NA","17","0","17","17","0","17","1","17","17","Wed Nov 29 10:05:17 2023","A template containing a practice and an experimental phase","yes","언어학과심리실험_B조_기말과제용심리실험.osexp","E:\2023년도 1학기\언어학과심리실험","no","mono","no","18","no","black","no","no","768","psycho","14","14","0","E:\2023년도 1학기\언어학과심리실험\quickrun.csv","psycho","Lentiform Loewenfeld","3.3.14","no","보트","artifactual","same phoneme","0","None","NA","n","NA","n","None","n","0.015300000086426735","NA","1177.1223999094218","NA","5541.749100084417","0.015300000086426735","744.9961000820622","2","psycho","1024","2","48000","-16","experiment","999","odd","보름달","natural","NA","47058.63300000783","20435.483500012197","20435.440800036304","NA","19257.25810008589","6922.592999995686","20435.005400096998","NA","46343.32079999149","7012.5683000078425","47910.95849999692","47911.11370001454","12555.29100005515","46549.81720005162","NA","47165.347300004214","46328.239700058475","Extended template","0","0.2510001650080085","15","yes","1024"
"0","0","0.016650010365992785","0.016650010365992785","white","yes","psycho","psycho","psycho","0","uniform","0","undefined","0","a","0","0","18","1","1","0","0","0","0","NA","18","0","18","18","0","18","1","18","18","Wed Nov 29 10:05:17 2023","A template containing a practice and an experimental phase","yes","언어학과심리실험_B조_기말과제용심리실험.osexp","E:\2023년도 1학기\언어학과심리실험","no","mono","no","18","no","black","no","no","768","psycho","15","15","0","E:\2023년도 1학기\언어학과심리실험\quickrun.csv","psycho","Lentiform Loewenfeld","3.3.14","no","경주","artifactual","no-correlation","0","None","NA","n","NA","n","None","n","0.015400000847876072","NA","1177.1223999094218","NA","5541.749100084417","0.015400000847876072","644.4772999966517","2","psycho","1024","2","48000","-16","experiment","999","odd","버스","artifactual","NA","48720.21240007598","20435.483500012197","20435.440800036304","NA","19257.25810008589","6922.592999995686","20435.005400096998","NA","48006.98430009652","7012.5683000078425","49474.901300040074","49475.058300071396","12555.29100005515","48216.00330004003","NA","48829.81990010012","47994.44110004697","Extended template","0","0.26640016585588455","16","yes","1024"
"0","0","0.016600009985268116","0.016600009985268116","white","yes","psycho","psycho","psycho","0","uniform","0","undefined","0","a","1","0","19","1","1","0","0","0","0","NA","19","0","19","19","0","19","1","19","19","Wed Nov 29 10:05:17 2023","A template containing a practice and an experimental phase","yes","언어학과심리실험_B조_기말과제용심리실험.osexp","E:\2023년도 1학기\언어학과심리실험","no","mono","no","18","no","black","no","no","768","psycho","16","16","0","E:\2023년도 1학기\언어학과심리실험\quickrun.csv","psycho","Lentiform Loewenfeld","3.3.14","no","악어","natural","same phoneme","0","None","NA","n","NA","n","None","a","0.01580000389367342","NA","1177.1223999094218","NA","5541.749100084417","0.01580000389367342","1913.0720000248402","2","psycho","1024","2","48000","-16","experiment","999","odd","악기","artifactual","NA","50278.09050003998","20435.483500012197","20435.440800036304","NA","19257.25810008589","6922.592999995686","20435.005400096998","NA","49562.7986000618","7012.5683000078425","52298.91900008079","52299.08450006042","12555.29100005515","49768.86900002137","NA","50385.279200039804","49552.44220001623","Extended template","0","0.28220016974955797","17","yes","1024"
"0","0","0.016572231995976634","0.016572231995976634","white","yes","psycho","psycho","psycho","0","uniform","0","undefined","0","a","1","0","20","1","1","0","0","0","0","NA","20","0","20","20","0","20","1","20","20","Wed Nov 29 10:05:17 2023","A template containing a practice and an experimental phase","yes","언어학과심리실험_B조_기말과제용심리실험.osexp","E:\2023년도 1학기\언어학과심리실험","no","mono","no","18","no","black","no","no","768","psycho","17","17","0","E:\2023년도 1학기\언어학과심리실험\quickrun.csv","psycho","Lentiform Loewenfeld","3.3.14","no","바람","natural","similar-environmental","0","None","NA","n","NA","n","None","a","0.01610000617802143","NA","1177.1223999094218","NA","5541.749100084417","0.01610000617802143","1207.102100015618","2","psycho","1024","2","48000","-16","experiment","999","odd","창문","artifactual","NA","53098.124200012535","20435.483500012197","20435.440800036304","NA","19257.25810008589","6922.592999995686","20435.005400096998","NA","52382.85580009688","7012.5683000078425","54410.97379999701","54411.14260000177","12555.29100005515","52589.53520003706","NA","53203.261099988595","52373.6161000561","Extended template","0","0.2983001759275794","18","yes","1024"
"0","0","0.016531588411644885","0.016531588411644885","white","yes","psycho","psycho","psycho","0","uniform","0","undefined","0","x","1","0","21","1","1","0","0","0","0","NA","21","0","21","21","0","21","1","21","21","Wed Nov 29 10:05:17 2023","A template containing a practice and an experimental phase","yes","언어학과심리실험_B조_기말과제용심리실험.osexp","E:\2023년도 1학기\언어학과심리실험","no","mono","no","18","no","black","no","no","768","psycho","18","18","0","E:\2023년도 1학기\언어학과심리실험\quickrun.csv","psycho","Lentiform Loewenfeld","3.3.14","no","폭풍","natural","non-word","0","None","NA","n","NA","n","None","x","0.01580000389367342","NA","1177.1223999094218","NA","5541.749100084417","0.01580000389367342","1947.561200009659","2","psycho","1024","2","48000","-16","experiment","999","odd","섬강","non-word","NA","55215.68610006943","20435.483500012197","20435.440800036304","NA","19257.25810008589","6922.592999995686","20435.005400096998","NA","54495.653700083494","7012.5683000078425","57275.42700001504","57275.59930004645","12555.29100005515","54711.1119000474","NA","55326.74789999146","54484.95680000633","Extended template","0","0.3141001798212528","19","yes","1024"
"0","0","0.01648500910960138","0.01648500910960138","white","yes","psycho","psycho","psycho","0","uniform","0","undefined","0","n","1","0","22","1","1","0","0","0","0","NA","22","0","22","22","0","22","1","22","22","Wed Nov 29 10:05:17 2023","A template containing a practice and an experimental phase","yes","언어학과심리실험_B조_기말과제용심리실험.osexp","E:\2023년도 1학기\언어학과심리실험","no","mono","no","18","no","black","no","no","768","psycho","19","19","0","E:\2023년도 1학기\언어학과심리실험\quickrun.csv","psycho","Lentiform Loewenfeld","3.3.14","no","박쥐","natural","similar-environmental","0","None","NA","n","NA","n","None","n","0.015600002370774746","NA","1177.1223999094218","NA","5541.749100084417","0.015600002370774746","1736.3626000005752","2","psycho","1024","2","48000","-16","experiment","999","odd","동굴","natural","NA","58088.82880001329","20435.483500012197","20435.440800036304","NA","19257.25810008589","6922.592999995686","20435.005400096998","NA","57365.602100035176","7012.5683000078425","59931.02330004331","59931.20360001922","12555.29100005515","57580.967399990186","NA","58194.00100002531","57353.1221000012","Extended template","0","0.32970018219202757","20","yes","1024"
"0","0","0.016509533105861573","0.016509533105861573","white","yes","psycho","psycho","psycho","0","uniform","0","undefined","0","n","1","0","23","1","1","0","0","0","0","NA","23","0","23","23","0","23","1","23","23","Wed Nov 29 10:05:17 2023","A template containing a practice and an experimental phase","yes","언어학과심리실험_B조_기말과제용심리실험.osexp","E:\2023년도 1학기\언어학과심리실험","no","mono","no","18","no","black","no","no","768","psycho","20","20","0","E:\2023년도 1학기\언어학과심리실험\quickrun.csv","psycho","Lentiform Loewenfeld","3.3.14","no","스노우보드","artifactual","no-correlation","0","None","NA","n","NA","n","None","n","0.017000013031065464","NA","1177.1223999094218","NA","5541.749100084417","0.017000013031065464","1742.784700007178","2","psycho","1024","2","48000","-16","experiment","999","odd","꽃","natural","NA","60742.77140002232","20435.483500012197","20435.440800036304","NA","19257.25810008589","6922.592999995686","20435.005400096998","NA","60031.07940009795","7012.5683000078425","62591.09190001618","62591.27340000123","12555.29100005515","60237.147900043055","NA","60847.562700044364","60015.73119999375","Extended template","0","0.34670019522309303","21","yes","1024"
"0","0","0.016486372756348414","0.016486372756348414","white","yes","psycho","psycho","psycho","0","uniform","0","undefined","0","a","1","0","24","1","1","0","0","0","0","NA","24","0","24","24","0","24","1","24","24","Wed Nov 29 10:05:17 2023","A template containing a practice and an experimental phase","yes","언어학과심리실험_B조_기말과제용심리실험.osexp","E:\2023년도 1학기\언어학과심리실험","no","mono","no","18","no","black","no","no","768","psycho","21","21","0","E:\2023년도 1학기\언어학과심리실험\quickrun.csv","psycho","Lentiform Loewenfeld","3.3.14","no","프린터","artifactual","similar-environmental","0","None","NA","n","NA","n","None","a","0.016000005416572094","NA","1177.1223999094218","NA","5541.749100084417","0.016000005416572094","686.723499908112","2","psycho","1024","2","48000","-16","experiment","999","odd","종이","artifactual","NA","63391.878099995665","20435.483500012197","20435.440800036304","NA","19257.25810008589","6922.592999995686","20435.005400096998","NA","62681.3038000837","7012.5683000078425","64190.87350007612","64191.05840008706","12555.29100005515","62887.51760008745","NA","63503.5275000846","62666.10040003434","Extended template","0","0.3627002006396651","22","yes","1024"
"0","0","0.01641305203994979","0.01641305203994979","white","yes","psycho","psycho","psycho","0","uniform","0","undefined","0","a","1","0","25","1","1","0","0","0","0","NA","25","0","25","25","0","25","1","25","25","Wed Nov 29 10:05:17 2023","A template containing a practice and an experimental phase","yes","언어학과심리실험_B조_기말과제용심리실험.osexp","E:\2023년도 1학기\언어학과심리실험","no","mono","no","18","no","black","no","no","768","psycho","22","22","0","E:\2023년도 1학기\언어학과심리실험\quickrun.csv","psycho","Lentiform Loewenfeld","3.3.14","no","기계","artifactual","inclusive","0","None","NA","n","NA","n","None","a","0.01479999627918005","NA","1177.1223999094218","NA","5541.749100084417","0.01479999627918005","765.761399990879","2","psycho","1024","2","48000","-16","experiment","999","odd","컴퓨터","artifactual","NA","64993.70990006719","20435.483500012197","20435.440800036304","NA","19257.25810008589","6922.592999995686","20435.005400096998","NA","64278.33640004974","7012.5683000078425","65866.88900005538","65867.07850010134","12555.29100005515","64484.580200049095","NA","65100.46460002195","64263.68830003776","Extended template","0","0.3775001969188452","23","yes","1024"
"0","0","0.016387508367188275","0.016387508367188275","white","yes","psycho","psycho","psycho","0","uniform","0","undefined","0","n","1","0","26","1","1","0","0","0","0","NA","26","0","26","26","0","26","1","26","26","Wed Nov 29 10:05:17 2023","A template containing a practice and an experimental phase","yes","언어학과심리실험_B조_기말과제용심리실험.osexp","E:\2023년도 1학기\언어학과심리실험","no","mono","no","18","no","black","no","no","768","psycho","23","23","0","E:\2023년도 1학기\언어학과심리실험\quickrun.csv","psycho","Lentiform Loewenfeld","3.3.14","no","악어","natural","similar-environmental","0","None","NA","n","NA","n","None","n","0.01580000389367342","NA","1177.1223999094218","NA","5541.749100084417","0.01580000389367342","544.5166999706998","2","psycho","1024","2","48000","-16","experiment","999","odd","늪","natural","NA","66661.05049999896","20435.483500012197","20435.440800036304","NA","19257.25810008589","6922.592999995686","20435.005400096998","NA","65950.35990001634","7012.5683000078425","67311.0319999978","67311.22560007498","12555.29100005515","66156.85730008408","NA","66765.81490004901","65937.31950002257","Extended template","0","0.3933002008125186","24","yes","1024"
"0","0","0.016324007883667946","0.016324007883667946","white","yes","psycho","psycho","psycho","0","uniform","0","undefined","0","n","1","0","27","1","1","0","0","0","0","NA","27","0","27","27","0","27","1","27","27","Wed Nov 29 10:05:17 2023","A template containing a practice and an experimental phase","yes","언어학과심리실험_B조_기말과제용심리실험.osexp","E:\2023년도 1학기\언어학과심리실험","no","mono","no","18","no","black","no","no","768","psycho","24","24","0","E:\2023년도 1학기\언어학과심리실험\quickrun.csv","psycho","Lentiform Loewenfeld","3.3.14","no","산","natural","similar-environmental","0","None","NA","n","NA","n","None","n","0.01479999627918005","NA","1177.1223999094218","NA","5541.749100084417","0.01479999627918005","583.3346999716014","2","psycho","1024","2","48000","-16","experiment","999","odd","계곡","natural","NA","68121.29820010159","20435.483500012197","20435.440800036304","NA","19257.25810008589","6922.592999995686","20435.005400096998","NA","67397.42709998973","7012.5683000078425","68810.94420002773","68811.14230002277","12555.29100005515","67605.33620009664","NA","68226.92340007052","67384.1856000945","Extended template","0","0.40810019709169865","25","yes","1024"
"0","0","0.016346161898512106","0.016346161898512106","white","yes","psycho","psycho","psycho","0","uniform","0","undefined","0","a","1","0","28","1","1","0","0","0","0","NA","28","0","28","28","0","28","1","28","28","Wed Nov 29 10:05:17 2023","A template containing a practice and an experimental phase","yes","언어학과심리실험_B조_기말과제용심리실험.osexp","E:\2023년도 1학기\언어학과심리실험","no","mono","no","18","no","black","no","no","768","psycho","25","25","0","E:\2023년도 1학기\언어학과심리실험\quickrun.csv","psycho","Lentiform Loewenfeld","3.3.14","no","바람","natural","no-correlation","0","None","NA","n","NA","n","None","a","0.016900012269616127","NA","1177.1223999094218","NA","5541.749100084417","0.016900012269616127","859.2824999941513","2","psycho","1024","2","48000","-16","experiment","999","odd","버스","artifactual","NA","69610.31710007228","20435.483500012197","20435.440800036304","NA","19257.25810008589","6922.592999995686","20435.005400096998","NA","68894.72780004144","7012.5683000078425","70574.9921000097","70575.19970007706","12555.29100005515","69101.22270009015","NA","69715.06340010092","68885.6730000116","Extended template","0","0.4250002093613148","26","yes","1024"
"0","0","0.01631482262854223","0.01631482262854223","white","yes","psycho","psycho","psycho","0","uniform","0","undefined","0","a","0","0","29","1","1","0","0","0","0","NA","29","0","29","29","0","29","1","29","29","Wed Nov 29 10:05:17 2023","A template containing a practice and an experimental phase","yes","언어학과심리실험_B조_기말과제용심리실험.osexp","E:\2023년도 1학기\언어학과심리실험","no","mono","no","18","no","black","no","no","768","psycho","26","26","0","E:\2023년도 1학기\언어학과심리실험\quickrun.csv","psycho","Lentiform Loewenfeld","3.3.14","no","성적표","artifactual","same phoneme","0","None","NA","n","NA","n","None","n","0.015500001609325409","NA","1177.1223999094218","NA","5541.749100084417","0.015500001609325409","511.6520000156015","2","psycho","1024","2","48000","-16","experiment","999","odd","성냥","artifactual","NA","71373.74200008344","20435.483500012197","20435.440800036304","NA","19257.25810008589","6922.592999995686","20435.005400096998","NA","70658.52910000831","7012.5683000078425","71991.12480005715","71991.33330001496","12555.29100005515","70864.62210002355","NA","71478.66600006819","70649.7244000202","Extended template","0","0.4405002109706402","27","yes","1024"
"0","0","0.016303579156686152","0.016303579156686152","white","yes","psycho","psycho","psycho","0","uniform","0","undefined","0","x","1","0","30","1","1","0","0","0","0","NA","30","0","30","30","0","30","1","30","30","Wed Nov 29 10:05:17 2023","A template containing a practice and an experimental phase","yes","언어학과심리실험_B조_기말과제용심리실험.osexp","E:\2023년도 1학기\언어학과심리실험","no","mono","no","18","no","black","no","no","768","psycho","27","27","0","E:\2023년도 1학기\언어학과심리실험\quickrun.csv","psycho","Lentiform Loewenfeld","3.3.14","no","벨트","artifactual","non-word","0","None","NA","n","NA","n","None","x","0.016000005416572094","NA","1177.1223999094218","NA","5541.749100084417","0.016000005416572094","1249.7842999873683","2","psycho","1024","2","48000","-16","experiment","999","odd","진웬","non-word","NA","72788.1412000861","20435.483500012197","20435.440800036304","NA","19257.25810008589","6922.592999995686","20435.005400096998","NA","72072.92679999955","7012.5683000078425","74147.12640002836","74147.33710000291","12555.29100005515","72279.0312001016","NA","72896.5501000639","72065.3512000572","Extended template","0","0.4565002163872123","28","yes","1024"
"0","0","0.016493112619580894","0.016493112619580894","white","yes","psycho","psycho","psycho","0","uniform","0","undefined","0","a","1","0","31","1","1","0","0","0","0","NA","31","0","31","31","0","31","1","31","31","Wed Nov 29 10:05:17 2023","A template containing a practice and an experimental phase","yes","언어학과심리실험_B조_기말과제용심리실험.osexp","E:\2023년도 1학기\언어학과심리실험","no","mono","no","18","no","black","no","no","768","psycho","28","28","0","E:\2023년도 1학기\언어학과심리실험\quickrun.csv","psycho","Lentiform Loewenfeld","3.3.14","no","모자","artifactual","no-correlation","0","None","NA","n","NA","n","None","a","0.02180004958063364","NA","1177.1223999094218","NA","5541.749100084417","0.02180004958063364","1900.164999999106","2","psycho","1024","2","48000","-16","experiment","999","odd","마우스","artifactual","NA","74967.4054000061","20435.483500012197","20435.440800036304","NA","19257.25810008589","6922.592999995686","20435.005400096998","NA","74252.24830000661","7012.5683000078425","76975.12770001777","76975.4844000563","12555.29100005515","74458.92070000991","NA","75074.08470008522","74235.96349998843","Extended template","0","0.4783002659678459","29","yes","1024"
"0","0","0.016456675560524065","0.016456675560524065","white","yes","psycho","psycho","psycho","0","uniform","0","undefined","0","a","1","0","32","1","1","0","0","0","0","NA","32","0","32","32","0","32","1","32","32","Wed Nov 29 10:05:17 2023","A template containing a practice and an experimental phase","yes","언어학과심리실험_B조_기말과제용심리실험.osexp","E:\2023년도 1학기\언어학과심리실험","no","mono","no","18","no","black","no","no","768","psycho","29","29","0","E:\2023년도 1학기\언어학과심리실험\quickrun.csv","psycho","Lentiform Loewenfeld","3.3.14","no","모니터","artifactual","same phoneme","0","None","NA","n","NA","n","None","a","0.015400000847876072","NA","1177.1223999094218","NA","5541.749100084417","0.015400000847876072","1754.3261999962851","2","psycho","1024","2","48000","-16","experiment","999","odd","모터","artifactual","NA","77779.13350006565","20435.483500012197","20435.440800036304","NA","19257.25810008589","6922.592999995686","20435.005400096998","NA","77063.75100009609","7012.5683000078425","79638.97140009794","79639.19290003832","12555.29100005515","77272.91420008987","NA","77883.9967000531","77054.1949000908","Extended template","0","0.493700266815722","30","yes","1024"
"0","0","0.016435492603528883","0.016435492603528883","white","yes","psycho","psycho","psycho","0","uniform","0","undefined","0","n","1","0","33","1","1","0","0","0","0","NA","33","0","33","33","0","33","1","33","33","Wed Nov 29 10:05:17 2023","A template containing a practice and an experimental phase","yes","언어학과심리실험_B조_기말과제용심리실험.osexp","E:\2023년도 1학기\언어학과심리실험","no","mono","no","18","no","black","no","no","768","psycho","30","30","0","E:\2023년도 1학기\언어학과심리실험\quickrun.csv","psycho","Lentiform Loewenfeld","3.3.14","no","물고기","natural","inclusive","0","None","NA","n","NA","n","None","n","0.01580000389367342","NA","1177.1223999094218","NA","5541.749100084417","0.01580000389367342","526.663800003007","2","psycho","1024","2","48000","-16","experiment","999","odd","연어","natural","NA","80440.91270002536","20435.483500012197","20435.440800036304","NA","19257.25810008589","6922.592999995686","20435.005400096998","NA","79726.07760003302","7012.5683000078425","81074.92730009835","81075.15560009051","12555.29100005515","79932.22409998998","NA","80547.55830008071","79717.36600005534","Extended template","0","0.5095002707093954","31","yes","1024"
"0","0","0.016453133866889402","0.016453133866889402","white","yes","psycho","psycho","psycho","0","uniform","0","undefined","0","a","1","0","34","1","1","0","0","0","0","NA","34","0","34","34","0","34","1","34","34","Wed Nov 29 10:05:17 2023","A template containing a practice and an experimental phase","yes","언어학과심리실험_B조_기말과제용심리실험.osexp","E:\2023년도 1학기\언어학과심리실험","no","mono","no","18","no","black","no","no","768","psycho","31","31","0","E:\2023년도 1학기\언어학과심리실험\quickrun.csv","psycho","Lentiform Loewenfeld","3.3.14","no","카메라","artifactual","inclusive","0","None","NA","n","NA","n","None","a","0.017000013031065464","NA","1177.1223999094218","NA","5541.749100084417","0.017000013031065464","1258.1236999249086","2","psycho","1024","2","48000","-16","experiment","999","odd","렌즈","artifactual","NA","81887.23350001965","20435.483500012197","20435.440800036304","NA","19257.25810008589","6922.592999995686","20435.005400096998","NA","81164.9220000254","7012.5683000078425","83251.01720006205","83251.25229998957","12555.29100005515","81380.64850005321","NA","81992.15090007056","81151.07840008568","Extended template","0","0.5265002837404609","32","yes","1024"
"0","0","0.016436372375623745","0.016436372375623745","white","yes","psycho","psycho","psycho","0","uniform","0","undefined","0","n","1","0","35","1","1","0","0","0","0","NA","35","0","35","35","0","35","1","35","35","Wed Nov 29 10:05:17 2023","A template containing a practice and an experimental phase","yes","언어학과심리실험_B조_기말과제용심리실험.osexp","E:\2023년도 1학기\언어학과심리실험","no","mono","no","18","no","black","no","no","768","psycho","32","32","0","E:\2023년도 1학기\언어학과심리실험\quickrun.csv","psycho","Lentiform Loewenfeld","3.3.14","no","새","natural","inclusive","0","None","NA","n","NA","n","None","n","0.015900004655122757","NA","1177.1223999094218","NA","5541.749100084417","0.015900004655122757","969.803599989973","2","psycho","1024","2","48000","-16","experiment","999","odd","까치","natural","NA","84068.05610004812","20435.483500012197","20435.440800036304","NA","19257.25810008589","6922.592999995686","20435.005400096998","NA","83352.87699999753","7012.5683000078425","85143.02499999758","85143.33510003053","12555.29100005515","83559.18310000561","NA","84172.5762001006","83339.57970002666","Extended template","0","0.5424002883955836","33","yes","1024"
"0","0","0.016423538053298697","0.016423538053298697","white","yes","psycho","psycho","psycho","0","uniform","0","undefined","0","a","1","0","36","1","1","0","0","0","0","NA","36","0","36","36","0","36","1","36","36","Wed Nov 29 10:05:17 2023","A template containing a practice and an experimental phase","yes","언어학과심리실험_B조_기말과제용심리실험.osexp","E:\2023년도 1학기\언어학과심리실험","no","mono","no","18","no","black","no","no","768","psycho","33","33","0","E:\2023년도 1학기\언어학과심리실험\quickrun.csv","psycho","Lentiform Loewenfeld","3.3.14","no","산","natural","similar-environmental","0","None","NA","n","NA","n","None","a","0.016000005416572094","NA","1177.1223999094218","NA","5541.749100084417","0.016000005416572094","1121.4326999615878","2","psycho","1024","2","48000","-16","experiment","999","odd","오두막","artifactual","NA","85947.74249999318","20435.483500012197","20435.440800036304","NA","19257.25810008589","6922.592999995686","20435.005400096998","NA","85232.84270009026","7012.5683000078425","87174.98860007618","87175.2289000433","12555.29100005515","85439.0410000924","NA","86052.89620009717","85217.83570002299","Extended template","0","0.5584002938121557","34","yes","1024"
"0","0","0.016411437120820795","0.016411437120820795","white","yes","psycho","psycho","psycho","0","uniform","0","undefined","0","a","1","0","37","1","1","0","0","0","0","NA","37","0","37","37","0","37","1","37","37","Wed Nov 29 10:05:17 2023","A template containing a practice and an experimental phase","yes","언어학과심리실험_B조_기말과제용심리실험.osexp","E:\2023년도 1학기\언어학과심리실험","no","mono","no","18","no","black","no","no","768","psycho","34","34","0","E:\2023년도 1학기\언어학과심리실험\quickrun.csv","psycho","Lentiform Loewenfeld","3.3.14","no","국가","artifactual","inclusive","0","None","NA","n","NA","n","None","a","0.016000005416572094","NA","1177.1223999094218","NA","5541.749100084417","0.016000005416572094","1293.3731999946758","2","psycho","1024","2","48000","-16","experiment","999","odd","대한민국","artifactual","NA","87985.8896000078","20435.483500012197","20435.440800036304","NA","19257.25810008589","6922.592999995686","20435.005400096998","NA","87262.37290003337","7012.5683000078425","89386.99060003273","89387.23690004554","12555.29100005515","87477.99520008266","NA","88092.88970008492","87251.2044000905","Extended template","0","0.5744002992287278","35","yes","1024"
"0","0","0.01641667525594433","0.01641667525594433","white","yes","psycho","psycho","psycho","0","uniform","0","undefined","0","n","1","0","38","1","1","0","0","0","0","NA","38","0","38","38","0","38","1","38","38","Wed Nov 29 10:05:17 2023","A template containing a practice and an experimental phase","yes","언어학과심리실험_B조_기말과제용심리실험.osexp","E:\2023년도 1학기\언어학과심리실험","no","mono","no","18","no","black","no","no","768","psycho","35","35","0","E:\2023년도 1학기\언어학과심리실험\quickrun.csv","psycho","Lentiform Loewenfeld","3.3.14","no","물고기","natural","no-correlation","0","None","NA","n","NA","n","None","n","0.016600009985268116","NA","1177.1223999094218","NA","5541.749100084417","0.016600009985268116","715.055700042285","2","psycho","1024","2","48000","-16","experiment","999","odd","밤하늘","natural","NA","90190.1856000768","20435.483500012197","20435.440800036304","NA","19257.25810008589","6922.592999995686","20435.005400096998","NA","89474.89150008187","7012.5683000078425","91010.96460002009","91011.21550006792","12555.29100005515","89680.85080001038","NA","90295.21310003474","89462.65050000511","Extended template","0","0.5910003092139959","36","yes","1024"
"0","0","0.016408116632216686","0.016408116632216686","white","yes","psycho","psycho","psycho","0","uniform","0","undefined","0","x","1","0","39","1","1","0","0","0","0","NA","39","0","39","39","0","39","1","39","39","Wed Nov 29 10:05:17 2023","A template containing a practice and an experimental phase","yes","언어학과심리실험_B조_기말과제용심리실험.osexp","E:\2023년도 1학기\언어학과심리실험","no","mono","no","18","no","black","no","no","768","psycho","36","36","0","E:\2023년도 1학기\언어학과심리실험\quickrun.csv","psycho","Lentiform Loewenfeld","3.3.14","no","사자","natural","non-word","0","None","NA","n","NA","n","None","x","0.01610000617802143","NA","1177.1223999094218","NA","5541.749100084417","0.01610000617802143","900.8339999709278","2","psycho","1024","2","48000","-16","experiment","999","odd","러스바이","non-word","NA","91812.2501000762","20435.483500012197","20435.440800036304","NA","19257.25810008589","6922.592999995686","20435.005400096998","NA","91097.36100002192","7012.5683000078425","92819.02470008936","92819.28070005961","12555.29100005515","91304.5514000114","NA","91917.4935000483","91084.07790004276","Extended template","0","0.6071003153920174","37","yes","1024"
"0","0","0.01645000577953301","0.01645000577953301","white","yes","psycho","psycho","psycho","0","uniform","0","undefined","0","a","1","0","40","1","1","0","0","0","0","NA","40","0","40","40","0","40","1","40","40","Wed Nov 29 10:05:17 2023","A template containing a practice and an experimental phase","yes","언어학과심리실험_B조_기말과제용심리실험.osexp","E:\2023년도 1학기\언어학과심리실험","no","mono","no","18","no","black","no","no","768","psycho","37","37","0","E:\2023년도 1학기\언어학과심리실험\quickrun.csv","psycho","Lentiform Loewenfeld","3.3.14","no","로켓","artifactual","same phoneme","0","None","NA","n","NA","n","None","a","0.017999904230237007","NA","1177.1223999094218","NA","5541.749100084417","0.017999904230237007","940.1522999396548","2","psycho","1024","2","48000","-16","experiment","999","odd","로봇","artifactual","NA","93617.43830004707","20435.483500012197","20435.440800036304","NA","19257.25810008589","6922.592999995686","20435.005400096998","NA","92902.46320003644","7012.5683000078425","94663.03450008854","94663.2910000626","12555.29100005515","93108.55090001132","NA","93722.18640008941","92894.40440002363","Extended template","0","0.6251002196222544","38","yes","1024"
"0","0","0.016425646698245637","0.016425646698245637","white","yes","psycho","psycho","psycho","0","uniform","0","undefined","0","n","1","0","41","1","1","0","0","0","0","NA","41","0","41","41","0","41","1","41","41","Wed Nov 29 10:05:17 2023","A template containing a practice and an experimental phase","yes","언어학과심리실험_B조_기말과제용심리실험.osexp","E:\2023년도 1학기\언어학과심리실험","no","mono","no","18","no","black","no","no","768","psycho","38","38","0","E:\2023년도 1학기\언어학과심리실험\quickrun.csv","psycho","Lentiform Loewenfeld","3.3.14","no","동굴","natural","similar-environmental","0","None","NA","n","NA","n","None","n","0.015500001609325409","NA","1177.1223999094218","NA","5541.749100084417","0.015500001609325409","1826.3889000518247","2","psycho","1024","2","48000","-16","experiment","999","odd","박쥐","natural","NA","95460.02600004431","20435.483500012197","20435.440800036304","NA","19257.25810008589","6922.592999995686","20435.005400096998","NA","94749.25440002698","7012.5683000078425","97399.03470000718","97399.29630002007","12555.29100005515","94955.40990005247","NA","95571.99470000342","94738.80010005087","Extended template","0","0.6406002212315798","39","yes","1024"
"0","0","0.016420005704276264","0.016420005704276264","white","yes","psycho","psycho","psycho","0","uniform","0","undefined","0","a","1","0","42","1","1","0","0","0","0","NA","42","0","42","42","0","42","1","42","42","Wed Nov 29 10:05:17 2023","A template containing a practice and an experimental phase","yes","언어학과심리실험_B조_기말과제용심리실험.osexp","E:\2023년도 1학기\언어학과심리실험","no","mono","no","18","no","black","no","no","768","psycho","39","39","0","E:\2023년도 1학기\언어학과심리실험\quickrun.csv","psycho","Lentiform Loewenfeld","3.3.14","no","전기","natural","similar-environmental","0","None","NA","n","NA","n","None","a","0.016200006939470768","NA","1177.1223999094218","NA","5541.749100084417","0.016200006939470768","691.6149000171572","2","psycho","1024","2","48000","-16","experiment","999","odd","전선","artifactual","NA","98217.89329999592","20435.483500012197","20435.440800036304","NA","19257.25810008589","6922.592999995686","20435.005400096998","NA","97502.58900003973","7012.5683000078425","99015.12420002837","99015.39100008085","12555.29100005515","97709.44840006996","NA","98322.63040007092","97487.86660004407","Extended template","0","0.6568002281710505","40","yes","1024"
"0","0","0.016409761794820066","0.016409761794820066","white","yes","psycho","psycho","psycho","0","uniform","0","undefined","0","n","1","0","43","1","1","0","0","0","0","NA","43","0","43","43","0","43","1","43","43","Wed Nov 29 10:05:17 2023","A template containing a practice and an experimental phase","yes","언어학과심리실험_B조_기말과제용심리실험.osexp","E:\2023년도 1학기\언어학과심리실험","no","mono","no","18","no","black","no","no","768","psycho","40","40","0","E:\2023년도 1학기\언어학과심리실험\quickrun.csv","psycho","Lentiform Loewenfeld","3.3.14","no","의자","artifactual","no-correlation","0","None","NA","n","NA","n","None","n","0.016000005416572094","NA","1177.1223999094218","NA","5541.749100084417","0.016000005416572094","850.5824999883771","2","psycho","1024","2","48000","-16","experiment","999","odd","행성","natural","NA","99815.00360008795","20435.483500012197","20435.440800036304","NA","19257.25810008589","6922.592999995686","20435.005400096998","NA","99099.63080007583","7012.5683000078425","100770.96930006519","100771.23880002182","12555.29100005515","99306.69720005244","NA","99919.74030004349","99089.14220007136","Extended template","0","0.6728002335876226","41","yes","1024"
"0","0","0.016476196746918418","0.016476196746918418","white","yes","psycho","psycho","psycho","0","uniform","0","undefined","0","a","1","0","44","1","1","0","0","0","0","NA","44","0","44","44","0","44","1","44","44","Wed Nov 29 10:05:17 2023","A template containing a practice and an experimental phase","yes","언어학과심리실험_B조_기말과제용심리실험.osexp","E:\2023년도 1학기\언어학과심리실험","no","mono","no","18","no","black","no","no","768","psycho","41","41","0","E:\2023년도 1학기\언어학과심리실험\quickrun.csv","psycho","Lentiform Loewenfeld","3.3.14","no","학교","artifactual","inclusive","0","None","NA","n","NA","n","None","a","0.019200029782950878","NA","1177.1223999094218","NA","5541.749100084417","0.019200029782950878","1126.1353000300005","2","psycho","1024","2","48000","-16","experiment","999","odd","학생","artifactual","NA","101567.20580009278","20435.483500012197","20435.440800036304","NA","19257.25810008589","6922.592999995686","20435.005400096998","NA","100854.96120003518","7012.5683000078425","102799.1896000458","102799.51240005903","12555.29100005515","101062.20909999683","NA","101672.13389999233","100846.1867000442","Extended template","0","0.6920002633705735","42","yes","1024"
"0","0","0.016460471331726675","0.016460471331726675","white","yes","psycho","psycho","psycho","0","uniform","0","undefined","0","a","1","0","45","1","1","0","0","0","0","NA","45","0","45","45","0","45","1","45","45","Wed Nov 29 10:05:17 2023","A template containing a practice and an experimental phase","yes","언어학과심리실험_B조_기말과제용심리실험.osexp","E:\2023년도 1학기\언어학과심리실험","no","mono","no","18","no","black","no","no","768","psycho","42","42","0","E:\2023년도 1학기\언어학과심리실험\quickrun.csv","psycho","Lentiform Loewenfeld","3.3.14","no","도미노","artifactual","same phoneme","0","None","NA","n","NA","n","None","a","0.01580000389367342","NA","1177.1223999094218","NA","5541.749100084417","0.01580000389367342","966.1605999572203","2","psycho","1024","2","48000","-16","experiment","999","odd","도서","artifactual","NA","103606.91060009412","20435.483500012197","20435.440800036304","NA","19257.25810008589","6922.592999995686","20435.005400096998","NA","102892.96850003302","7012.5683000078425","104683.05810005404","104683.33710008301","12555.29100005515","103099.5636000298","NA","103716.13320009783","102880.28650009073","Extended template","0","0.7078002672642469","43","yes","1024"
"0","0","0.01645455168644813","0.01645455168644813","white","yes","psycho","psycho","psycho","0","uniform","0","undefined","0","n","1","0","46","1","1","0","0","0","0","NA","46","0","46","46","0","46","1","46","46","Wed Nov 29 10:05:17 2023","A template containing a practice and an experimental phase","yes","언어학과심리실험_B조_기말과제용심리실험.osexp","E:\2023년도 1학기\언어학과심리실험","no","mono","no","18","no","black","no","no","768","psycho","43","43","0","E:\2023년도 1학기\언어학과심리실험\quickrun.csv","psycho","Lentiform Loewenfeld","3.3.14","no","상새고","non-word","non-word","0","None","NA","n","NA","n","None","n","0.016200006939470768","NA","1177.1223999094218","NA","5541.749100084417","0.016200006939470768","892.4220000626519","2","psycho","1024","2","48000","-16","experiment","999","odd","나뭇잎","natural","NA","105488.31680009607","20435.483500012197","20435.440800036304","NA","19257.25810008589","6922.592999995686","20435.005400096998","NA","104772.94660010375","7012.5683000078425","106487.06290009432","106487.34640004113","12555.29100005515","104979.56470004283","NA","105593.79429998808","104761.19760004804","Extended template","0","0.7240002742037177","44","yes","1024"
"0","0","0.0164488951365153","0.0164488951365153","white","yes","psycho","psycho","psycho","0","uniform","0","undefined","0","x","1","0","47","1","1","0","0","0","0","NA","47","0","47","47","0","47","1","47","47","Wed Nov 29 10:05:17 2023","A template containing a practice and an experimental phase","yes","언어학과심리실험_B조_기말과제용심리실험.osexp","E:\2023년도 1학기\언어학과심리실험","no","mono","no","18","no","black","no","no","768","psycho","44","44","0","E:\2023년도 1학기\언어학과심리실험\quickrun.csv","psycho","Lentiform Loewenfeld","3.3.14","no","절벽","natural","non-word","0","None","NA","n","NA","n","None","x","0.016200006939470768","NA","1177.1223999094218","NA","5541.749100084417","0.016200006939470768","979.7208999516442","2","psycho","1024","2","48000","-16","experiment","999","odd","물로프","non-word","NA","107301.70140007976","20435.483500012197","20435.440800036304","NA","19257.25810008589","6922.592999995686","20435.005400096998","NA","106586.17950009648","7012.5683000078425","108386.9956000708","108387.28320004884","12555.29100005515","106792.2340000514","NA","107406.50510007981","106575.26770001277","Extended template","0","0.7402002811431885","45","yes","1024"
"0","0","0.016454354171519695","0.016454354171519695","white","yes","psycho","psycho","psycho","0","uniform","0","undefined","0","n","1","0","48","1","1","0","0","0","0","NA","48","0","48","48","0","48","1","48","48","Wed Nov 29 10:05:17 2023","A template containing a practice and an experimental phase","yes","언어학과심리실험_B조_기말과제용심리실험.osexp","E:\2023년도 1학기\언어학과심리실험","no","mono","no","18","no","black","no","no","768","psycho","45","45","0","E:\2023년도 1학기\언어학과심리실험\quickrun.csv","psycho","Lentiform Loewenfeld","3.3.14","no","태양계","natural","inclusive","0","None","NA","n","NA","n","None","n","0.016700010746717453","NA","1177.1223999094218","NA","5541.749100084417","0.016700010746717453","1775.382800027728","2","psycho","1024","2","48000","-16","experiment","999","odd","목성","natural","NA","109197.93620007113","20435.483500012197","20435.440800036304","NA","19257.25810008589","6922.592999995686","20435.005400096998","NA","108474.82710005715","7012.5683000078425","111079.16399999522","111079.46190005168","12555.29100005515","108690.36500004586","NA","109302.9331000289","108463.00920005888","Extended template","0","0.7569002918899059","46","yes","1024"
"0","0","0.01646809161026427","0.01646809161026427","white","yes","psycho","psycho","psycho","0","uniform","0","undefined","0","n","1","0","49","1","1","0","0","0","0","NA","49","0","49","49","0","49","1","49","49","Wed Nov 29 10:05:17 2023","A template containing a practice and an experimental phase","yes","언어학과심리실험_B조_기말과제용심리실험.osexp","E:\2023년도 1학기\언어학과심리실험","no","mono","no","18","no","black","no","no","768","psycho","46","46","0","E:\2023년도 1학기\언어학과심리실험\quickrun.csv","psycho","Lentiform Loewenfeld","3.3.14","no","불","natural","no-correlation","0","None","NA","n","NA","n","None","n","0.0171000137925148","NA","1177.1223999094218","NA","5541.749100084417","0.0171000137925148","1766.8454999802634","2","psycho","1024","2","48000","-16","experiment","999","odd","바위","natural","NA","111884.8805000307","20435.483500012197","20435.440800036304","NA","19257.25810008589","6922.592999995686","20435.005400096998","NA","111170.07800005376","7012.5683000078425","113759.11119999364","113759.46770003065","12555.29100005515","111376.766600064","NA","111991.46410007961","111155.52790008951","Extended template","0","0.7740003056824207","47","yes","1024"
"0","0","0.016466673211349796","0.016466673211349796","white","yes","psycho","psycho","psycho","0","uniform","0","undefined","0","a","1","0","50","1","1","0","0","0","0","NA","50","0","50","50","0","50","1","50","50","Wed Nov 29 10:05:17 2023","A template containing a practice and an experimental phase","yes","언어학과심리실험_B조_기말과제용심리실험.osexp","E:\2023년도 1학기\언어학과심리실험","no","mono","no","18","no","black","no","no","768","psycho","47","47","0","E:\2023년도 1학기\언어학과심리실험\quickrun.csv","psycho","Lentiform Loewenfeld","3.3.14","no","건물","artifactual","inclusive","0","None","NA","n","NA","n","None","a","0.016400008462369442","NA","1177.1223999094218","NA","5541.749100084417","0.016400008462369442","651.4892999548465","2","psycho","1024","2","48000","-16","experiment","999","odd","병원","artifactual","NA","114564.0177000314","20435.483500012197","20435.440800036304","NA","19257.25810008589","6922.592999995686","20435.005400096998","NA","113848.77909999341","7012.5683000078425","115323.09180009179","115323.39820009656","12555.29100005515","114055.09050004184","NA","114670.71110010147","113834.99780006241","Extended template","0","0.7904003141447902","48","yes","1024"
"0","0","0.016565311091895005","0.016565311091895005","white","yes","psycho","psycho","psycho","0","uniform","0","undefined","0","n","1","0","51","1","1","0","0","0","0","NA","51","0","51","51","0","51","1","51","51","Wed Nov 29 10:05:17 2023","A template containing a practice and an experimental phase","yes","언어학과심리실험_B조_기말과제용심리실험.osexp","E:\2023년도 1학기\언어학과심리실험","no","mono","no","18","no","black","no","no","768","psycho","48","48","0","E:\2023년도 1학기\언어학과심리실험\quickrun.csv","psycho","Lentiform Loewenfeld","3.3.14","no","불","natural","no-correlation","0","None","NA","n","NA","n","None","n","0.02129992935806513","NA","1177.1223999094218","NA","5541.749100084417","0.02129992935806513","896.7434000223875","2","psycho","1024","2","48000","-16","experiment","999","odd","물고기","natural","NA","116135.97910001408","20435.483500012197","20435.440800036304","NA","19257.25810008589","6922.592999995686","20435.005400096998","NA","115412.48619998805","7012.5683000078425","117143.31160008442","117143.8199999975","12555.29100005515","115628.97680001333","NA","116245.47580000944","115397.66620006412","Extended template","0","0.8117002435028553","49","yes","1024"
"0","0","0.016548004932701588","0.016548004932701588","white","yes","psycho","psycho","psycho","0","uniform","0","undefined","0","a","1","0","52","1","1","0","0","0","0","NA","52","0","52","52","0","52","1","52","52","Wed Nov 29 10:05:17 2023","A template containing a practice and an experimental phase","yes","언어학과심리실험_B조_기말과제용심리실험.osexp","E:\2023년도 1학기\언어학과심리실험","no","mono","no","18","no","black","no","no","768","psycho","49","49","0","E:\2023년도 1학기\언어학과심리실험\quickrun.csv","psycho","Lentiform Loewenfeld","3.3.14","no","화분","artifactual","no-correlation","0","None","NA","n","NA","n","None","a","0.015700003132224083","NA","1177.1223999094218","NA","5541.749100084417","0.015700003132224083","2015.4932000441477","2","psycho","1024","2","48000","-16","experiment","999","odd","신발","artifactual","NA","117957.66210008878","20435.483500012197","20435.440800036304","NA","19257.25810008589","6922.592999995686","20435.005400096998","NA","117242.61180008762","7012.5683000078425","120079.0236000903","120079.34640010353","12555.29100005515","117449.17670008726","NA","118062.73050000891","117231.88120010309","Extended template","0","0.8274002466350794","50","yes","1024"
"0","0","0.016560789435079284","0.016560789435079284","white","yes","psycho","psycho","psycho","0","uniform","0","undefined","0","a","1","0","53","1","1","0","0","0","0","NA","53","0","53","53","0","53","1","53","53","Wed Nov 29 10:05:17 2023","A template containing a practice and an experimental phase","yes","언어학과심리실험_B조_기말과제용심리실험.osexp","E:\2023년도 1학기\언어학과심리실험","no","mono","no","18","no","black","no","no","768","psycho","50","50","0","E:\2023년도 1학기\언어학과심리실험\quickrun.csv","psycho","Lentiform Loewenfeld","3.3.14","no","기차","artifactual","no-correlation","0","None","NA","n","NA","n","None","a","0.017200014553964138","NA","1177.1223999094218","NA","5541.749100084417","0.017200014553964138","1443.8290999969468","2","psycho","1024","2","48000","-16","experiment","999","odd","가방","artifactual","NA","120877.64010007959","20435.483500012197","20435.440800036304","NA","19257.25810008589","6922.592999995686","20435.005400096998","NA","120162.3575000558","7012.5683000078425","122427.27320000995","122427.59320000187","12555.29100005515","120368.73490002472","NA","120982.37390001304","120154.74550006911","Extended template","0","0.8446002611890435","51","yes","1024"
"0","0","0.016563466767995402","0.016563466767995402","white","yes","psycho","psycho","psycho","0","uniform","0","undefined","0","a","1","0","54","1","1","0","0","0","0","NA","54","0","54","54","0","54","1","54","54","Wed Nov 29 10:05:17 2023","A template containing a practice and an experimental phase","yes","언어학과심리실험_B조_기말과제용심리실험.osexp","E:\2023년도 1학기\언어학과심리실험","no","mono","no","18","no","black","no","no","768","psycho","51","51","0","E:\2023년도 1학기\언어학과심리실험\quickrun.csv","psycho","Lentiform Loewenfeld","3.3.14","no","선설수","non-word","non-word","0","None","NA","n","NA","n","None","a","0.016700010746717453","NA","1177.1223999094218","NA","5541.749100084417","0.016700010746717453","1592.8852000506595","2","psycho","1024","2","48000","-16","experiment","999","odd","시계","artifactual","NA","123231.88340000343","20435.483500012197","20435.440800036304","NA","19257.25810008589","6922.592999995686","20435.005400096998","NA","122516.21350005735","7012.5683000078425","124935.0191000849","124935.34090009052","12555.29100005515","122724.64340005536","NA","123341.41380002256","122502.54600006156","Extended template","0","0.861300271935761","52","yes","1024"
"0","0","0.01657359029675992","0.01657359029675992","white","yes","psycho","psycho","psycho","0","uniform","0","undefined","0","n","1","0","55","1","1","0","0","0","0","NA","55","0","55","55","0","55","1","55","55","Wed Nov 29 10:05:17 2023","A template containing a practice and an experimental phase","yes","언어학과심리실험_B조_기말과제용심리실험.osexp","E:\2023년도 1학기\언어학과심리실험","no","mono","no","18","no","black","no","no","768","psycho","52","52","0","E:\2023년도 1학기\언어학과심리실험\quickrun.csv","psycho","Lentiform Loewenfeld","3.3.14","no","스노우보드","artifactual","no-correlation","0","None","NA","n","NA","n","None","n","0.0171000137925148","NA","1177.1223999094218","NA","5541.749100084417","0.0171000137925148","891.888500074856","2","psycho","1024","2","48000","-16","experiment","999","odd","소나무","natural","NA","125735.60930008534","20435.483500012197","20435.440800036304","NA","19257.25810008589","6922.592999995686","20435.005400096998","NA","125020.5527000362","7012.5683000078425","126735.16100004781","126735.48330005724","12555.29100005515","125226.82580002584","NA","125842.32950001024","125010.31350006815","Extended template","0","0.8784002857282758","53","yes","1024"
"0","0","0.01657037366250599","0.01657037366250599","white","yes","psycho","psycho","psycho","0","uniform","0","undefined","0","a","1","0","56","1","1","0","0","0","0","NA","56","0","56","56","0","56","1","56","56","Wed Nov 29 10:05:17 2023","A template containing a practice and an experimental phase","yes","언어학과심리실험_B조_기말과제용심리실험.osexp","E:\2023년도 1학기\언어학과심리실험","no","mono","no","18","no","black","no","no","768","psycho","53","53","0","E:\2023년도 1학기\언어학과심리실험\quickrun.csv","psycho","Lentiform Loewenfeld","3.3.14","no","향수","artifactual","no-correlation","0","None","NA","n","NA","n","None","a","0.016399892047047615","NA","1177.1223999094218","NA","5541.749100084417","0.016399892047047615","1512.3576999176294","2","psycho","1024","2","48000","-16","experiment","999","odd","선풍기","artifactual","NA","127540.76490004081","20435.483500012197","20435.440800036304","NA","19257.25810008589","6922.592999995686","20435.005400096998","NA","126825.32699999865","7012.5683000078425","129163.09710009955","129163.42360002454","12555.29100005515","127031.59340005368","NA","127649.94570007548","126815.53070002701","Extended template","0","0.8948001777753234","54","yes","1024"
"0","0","0.01655454874377359","0.01655454874377359","white","yes","psycho","psycho","psycho","0","uniform","0","undefined","0","n","1","0","57","1","1","0","0","0","0","NA","57","0","57","57","0","57","1","57","57","Wed Nov 29 10:05:17 2023","A template containing a practice and an experimental phase","yes","언어학과심리실험_B조_기말과제용심리실험.osexp","E:\2023년도 1학기\언어학과심리실험","no","mono","no","18","no","black","no","no","768","psycho","54","54","0","E:\2023년도 1학기\언어학과심리실험\quickrun.csv","psycho","Lentiform Loewenfeld","3.3.14","no","호랑이","natural","same phoneme","0","None","NA","n","NA","n","None","n","0.015700003132224083","NA","1177.1223999094218","NA","5541.749100084417","0.015700003132224083","780.1827000221238","2","psycho","1024","2","48000","-16","experiment","999","odd","호수","natural","NA","129961.28420007881","20435.483500012197","20435.440800036304","NA","19257.25810008589","6922.592999995686","20435.005400096998","NA","129246.24890007544","7012.5683000078425","130847.58370008785","130847.91090001818","12555.29100005515","129452.96940009575","NA","130066.08660006896","129238.52430004627","Extended template","0","0.9105001809075475","55","yes","1024"
"0","0","0.016537503272827183","0.016537503272827183","white","yes","psycho","psycho","psycho","0","uniform","0","undefined","0","n","1","0","58","1","1","0","0","0","0","NA","58","0","58","58","0","58","1","58","58","Wed Nov 29 10:05:17 2023","A template containing a practice and an experimental phase","yes","언어학과심리실험_B조_기말과제용심리실험.osexp","E:\2023년도 1학기\언어학과심리실험","no","mono","no","18","no","black","no","no","768","psycho","55","55","0","E:\2023년도 1학기\언어학과심리실험\quickrun.csv","psycho","Lentiform Loewenfeld","3.3.14","no","해마","natural","same phoneme","0","None","NA","n","NA","n","None","n","0.015600002370774746","NA","1177.1223999094218","NA","5541.749100084417","0.015600002370774746","5393.83979991544","2","psycho","1024","2","48000","-16","experiment","999","odd","해질녘","natural","NA","131650.04269999918","20435.483500012197","20435.440800036304","NA","19257.25810008589","6922.592999995686","20435.005400096998","NA","130934.9963000277","7012.5683000078425","137159.13630009163","137159.47060007602","12555.29100005515","131141.82750007603","NA","131764.35090007726","130922.66420007218","Extended template","0","0.9261001832783222","56","yes","1024"
"0","0","0.016519301489256975","0.016519301489256975","white","yes","psycho","psycho","psycho","0","uniform","0","undefined","0","a","1","0","59","1","1","0","0","0","0","NA","59","0","59","59","0","59","1","59","59","Wed Nov 29 10:05:17 2023","A template containing a practice and an experimental phase","yes","언어학과심리실험_B조_기말과제용심리실험.osexp","E:\2023년도 1학기\언어학과심리실험","no","mono","no","18","no","black","no","no","768","psycho","56","56","0","E:\2023년도 1학기\언어학과심리실험\quickrun.csv","psycho","Lentiform Loewenfeld","3.3.14","no","마우스","artifactual","no-correlation","0","None","NA","n","NA","n","None","a","0.015500001609325409","NA","1177.1223999094218","NA","5541.749100084417","0.015500001609325409","1898.6085000215098","2","psycho","1024","2","48000","-16","experiment","999","odd","모자","artifactual","NA","137959.78820009623","20435.483500012197","20435.440800036304","NA","19257.25810008589","6922.592999995686","20435.005400096998","NA","137248.73680004384","7012.5683000078425","139970.95820005052","139971.29520005547","12555.29100005515","137455.3705001017","NA","138071.6196000576","137233.65280008875","Extended template","0","0.9416001848876476","57","yes","1024"
"0","0","0.01661034686298206","0.01661034686298206","white","yes","psycho","psycho","psycho","0","uniform","0","undefined","0","a","1","0","60","1","1","0","0","0","0","NA","60","0","60","60","0","60","1","60","60","Wed Nov 29 10:05:17 2023","A template containing a practice and an experimental phase","yes","언어학과심리실험_B조_기말과제용심리실험.osexp","E:\2023년도 1학기\언어학과심리실험","no","mono","no","18","no","black","no","no","768","psycho","57","57","0","E:\2023년도 1학기\언어학과심리실험\quickrun.csv","psycho","Lentiform Loewenfeld","3.3.14","no","바다","natural","same phoneme","0","None","NA","n","NA","n","None","a","0.021799933165311813","NA","1177.1223999094218","NA","5541.749100084417","0.021799933165311813","1173.0373000027612","2","psycho","1024","2","48000","-16","experiment","999","odd","바구니","artifactual","NA","140775.55920009036","20435.483500012197","20435.440800036304","NA","19257.25810008589","6922.592999995686","20435.005400096998","NA","140060.4131000582","7012.5683000078425","142055.23260007612","142055.59570004698","12555.29100005515","140267.89960009046","NA","140881.22760003898","140046.2564000627","Extended template","0","0.9634001180529594","58","yes","1024"
"0","0","0.016647458108047308","0.016647458108047308","white","yes","psycho","psycho","psycho","0","uniform","0","undefined","0","a","1","0","61","1","1","0","0","0","0","NA","61","0","61","61","0","61","1","61","61","Wed Nov 29 10:05:17 2023","A template containing a practice and an experimental phase","yes","언어학과심리실험_B조_기말과제용심리실험.osexp","E:\2023년도 1학기\언어학과심리실험","no","mono","no","18","no","black","no","no","768","psycho","58","58","0","E:\2023년도 1학기\언어학과심리실험\quickrun.csv","psycho","Lentiform Loewenfeld","3.3.14","no","소나무","natural","same phoneme","0","None","NA","n","NA","n","None","a","0.018799910321831703","NA","1177.1223999094218","NA","5541.749100084417","0.018799910321831703","1589.2908000387251","2","psycho","1024","2","48000","-16","experiment","999","odd","소방서","artifactual","NA","142851.81550006382","20435.483500012197","20435.440800036304","NA","19257.25810008589","6922.592999995686","20435.005400096998","NA","142140.02380007878","7012.5683000078425","144547.46710008476","144547.8411000222","12555.29100005515","142347.36500005238","NA","142956.94850001018","142131.35650008917","Extended template","0","0.9822000283747911","59","yes","1024"
"0","0","0.01664000058857103","0.01664000058857103","white","yes","psycho","psycho","psycho","0","uniform","0","undefined","0","a","1","0","62","1","1","0","0","0","0","NA","62","0","62","62","0","62","1","62","62","Wed Nov 29 10:05:17 2023","A template containing a practice and an experimental phase","yes","언어학과심리실험_B조_기말과제용심리실험.osexp","E:\2023년도 1학기\언어학과심리실험","no","mono","no","18","no","black","no","no","768","psycho","59","59","0","E:\2023년도 1학기\언어학과심리실험\quickrun.csv","psycho","Lentiform Loewenfeld","3.3.14","no","옷","artifactual","inclusive","0","None","NA","n","NA","n","None","a","0.016200006939470768","NA","1177.1223999094218","NA","5541.749100084417","0.016200006939470768","717.843999969773","2","psycho","1024","2","48000","-16","experiment","999","odd","코트","artifactual","NA","145351.07410000637","20435.483500012197","20435.440800036304","NA","19257.25810008589","6922.592999995686","20435.005400096998","NA","144635.6906000292","7012.5683000078425","146175.38380005863","146175.74020009488","12555.29100005515","144842.27280004416","NA","145456.3744000625","144623.13530000392","Extended template","0","0.9984000353142619","60","yes","1024"
"0","0","0.01667049278306668","0.01667049278306668","white","yes","psycho","psycho","psycho","0","uniform","0","undefined","0","n","1","0","63","1","1","0","0","0","0","NA","63","0","63","63","0","63","1","63","63","Wed Nov 29 10:05:17 2023","A template containing a practice and an experimental phase","yes","언어학과심리실험_B조_기말과제용심리실험.osexp","E:\2023년도 1학기\언어학과심리실험","no","mono","no","18","no","black","no","no","768","psycho","60","60","0","E:\2023년도 1학기\언어학과심리실험\quickrun.csv","psycho","Lentiform Loewenfeld","3.3.14","no","항구","artifactual","similar-environmental","0","None","NA","n","NA","n","None","n","0.01850002445280552","NA","1177.1223999094218","NA","5541.749100084417","0.01850002445280552","640.2196000562981","2","psycho","1024","2","48000","-16","experiment","999","odd","바다","natural","NA","146981.04590002913","20435.483500012197","20435.440800036304","NA","19257.25810008589","6922.592999995686","20435.005400096998","NA","146266.13150001504","7012.5683000078425","147727.12280007545","147727.4836000288","12555.29100005515","146473.16460008733","NA","147086.00280003157","146249.43950003944","Extended template","0","1.0169000597670674","61","yes","1024"
"0","0","0.016650000977660378","0.016650000977660378","white","yes","psycho","psycho","psycho","0","uniform","0","undefined","0","a","1","0","64","1","1","0","0","0","0","NA","64","0","64","64","0","64","1","64","64","Wed Nov 29 10:05:17 2023","A template containing a practice and an experimental phase","yes","언어학과심리실험_B조_기말과제용심리실험.osexp","E:\2023년도 1학기\언어학과심리실험","no","mono","no","18","no","black","no","no","768","psycho","61","61","0","E:\2023년도 1학기\언어학과심리실험\quickrun.csv","psycho","Lentiform Loewenfeld","3.3.14","no","꽃","natural","no-correlation","0","None","NA","n","NA","n","None","a","0.015400000847876072","NA","1177.1223999094218","NA","5541.749100084417","0.015400000847876072","3397.4817000562325","2","psycho","1024","2","48000","-16","experiment","999","odd","경주","artifactual","NA","148528.1920999987","20435.483500012197","20435.440800036304","NA","19257.25810008589","6922.592999995686","20435.005400096998","NA","147813.16190003417","7012.5683000078425","152031.87810000964","152032.24030009005","12555.29100005515","148020.84540005308","NA","148632.82790000085","147805.49150006846","Extended template","0","1.0323000606149435","62","yes","1024"
"0","0","0.016636508960454238","0.016636508960454238","white","yes","psycho","psycho","psycho","0","uniform","0","undefined","0","n","1","0","65","1","1","0","0","0","0","NA","65","0","65","65","0","65","1","65","65","Wed Nov 29 10:05:17 2023","A template containing a practice and an experimental phase","yes","언어학과심리실험_B조_기말과제용심리실험.osexp","E:\2023년도 1학기\언어학과심리실험","no","mono","no","18","no","black","no","no","768","psycho","62","62","0","E:\2023년도 1학기\언어학과심리실험\quickrun.csv","psycho","Lentiform Loewenfeld","3.3.14","no","경주","artifactual","no-correlation","0","None","NA","n","NA","n","None","n","0.01580000389367342","NA","1177.1223999094218","NA","5541.749100084417","0.01580000389367342","945.5760999117047","2","psycho","1024","2","48000","-16","experiment","999","odd","소나무","natural","NA","152837.2927000746","20435.483500012197","20435.440800036304","NA","19257.25810008589","6922.592999995686","20435.005400096998","NA","152120.0480000116","7012.5683000078425","153891.01410005242","153891.3779000286","12555.29100005515","152325.89000009466","NA","152944.59010008723","152110.539300018","Extended template","0","1.048100064508617","63","yes","1024"
"0","0","0.016635938663966954","0.016635938663966954","white","yes","psycho","psycho","psycho","0","uniform","0","undefined","0","a","1","0","66","1","1","0","0","0","0","NA","66","0","66","66","0","66","1","66","66","Wed Nov 29 10:05:17 2023","A template containing a practice and an experimental phase","yes","언어학과심리실험_B조_기말과제용심리실험.osexp","E:\2023년도 1학기\언어학과심리실험","no","mono","no","18","no","black","no","no","768","psycho","63","63","0","E:\2023년도 1학기\언어학과심리실험\quickrun.csv","psycho","Lentiform Loewenfeld","3.3.14","no","눈","natural","similar-environmental","0","None","NA","n","NA","n","None","a","0.016600009985268116","NA","1177.1223999094218","NA","5541.749100084417","0.016600009985268116","3037.1870000381023","2","psycho","1024","2","48000","-16","experiment","999","odd","스키","artifactual","NA","154692.37250008155","20435.483500012197","20435.440800036304","NA","19257.25810008589","6922.592999995686","20435.005400096998","NA","153977.05710004084","7012.5683000078425","157835.0855000317","157835.45830007643","12555.29100005515","154183.14420001116","NA","154797.05090005882","153965.27110005263","Extended template","0","1.064700074493885","64","yes","1024"
"0","0","0.01664769370108843","0.01664769370108843","white","yes","psycho","psycho","psycho","0","uniform","0","undefined","0","n","1","0","67","1","1","0","0","0","0","NA","67","0","67","67","0","67","1","67","67","Wed Nov 29 10:05:17 2023","A template containing a practice and an experimental phase","yes","언어학과심리실험_B조_기말과제용심리실험.osexp","E:\2023년도 1학기\언어학과심리실험","no","mono","no","18","no","black","no","no","768","psycho","64","64","0","E:\2023년도 1학기\언어학과심리실험\quickrun.csv","psycho","Lentiform Loewenfeld","3.3.14","no","언덕","natural","no-correlation","0","None","NA","n","NA","n","None","n","0.017400016076862812","NA","1177.1223999094218","NA","5541.749100084417","0.017400016076862812","659.241099958308","2","psycho","1024","2","48000","-16","experiment","999","odd","고양이","natural","NA","158660.21570004523","20435.483500012197","20435.440800036304","NA","19257.25810008589","6922.592999995686","20435.005400096998","NA","157937.23000003956","7012.5683000078425","159427.2348000668","159427.6058000978","12555.29100005515","158152.08950010128","NA","158766.96740009356","157920.5167000182","Extended template","0","1.0821000905707479","65","yes","1024"
"0","0","0.016656062198859272","0.016656062198859272","white","yes","psycho","psycho","psycho","0","uniform","0","undefined","0","n","1","0","68","1","1","0","0","0","0","NA","68","0","68","68","0","68","1","68","68","Wed Nov 29 10:05:17 2023","A template containing a practice and an experimental phase","yes","언어학과심리실험_B조_기말과제용심리실험.osexp","E:\2023년도 1학기\언어학과심리실험","no","mono","no","18","no","black","no","no","768","psycho","65","65","0","E:\2023년도 1학기\언어학과심리실험\quickrun.csv","psycho","Lentiform Loewenfeld","3.3.14","no","멜블옴","non-word","non-word","0","None","NA","n","NA","n","None","n","0.017200014553964138","NA","1177.1223999094218","NA","5541.749100084417","0.017200014553964138","1438.4519999148324","2","psycho","1024","2","48000","-16","experiment","999","odd","폭포","natural","NA","160224.68350001145","20435.483500012197","20435.440800036304","NA","19257.25810008589","6922.592999995686","20435.005400096998","NA","159509.3302000314","7012.5683000078425","161771.26569999382","161771.72620000783","12555.29100005515","159715.4898000881","NA","160331.74450008664","159500.74920000043","Extended template","0","1.099300105124712","66","yes","1024"
"0","0","0.0166731361827966","0.0166731361827966","white","yes","psycho","psycho","psycho","0","uniform","0","undefined","0","a","1","0","69","1","1","0","0","0","0","NA","69","0","69","69","0","69","1","69","69","Wed Nov 29 10:05:17 2023","A template containing a practice and an experimental phase","yes","언어학과심리실험_B조_기말과제용심리실험.osexp","E:\2023년도 1학기\언어학과심리실험","no","mono","no","18","no","black","no","no","768","psycho","66","66","0","E:\2023년도 1학기\언어학과심리실험\quickrun.csv","psycho","Lentiform Loewenfeld","3.3.14","no","플피","non-word","non-word","0","None","NA","n","NA","n","None","a","0.01780001912266016","NA","1177.1223999094218","NA","5541.749100084417","0.01780001912266016","1117.2582000726834","2","psycho","1024","2","48000","-16","experiment","999","odd","책상","artifactual","NA","162578.20770004764","20435.483500012197","20435.440800036304","NA","19257.25810008589","6922.592999995686","20435.005400096998","NA","161860.7411000412","7012.5683000078425","163803.10710007325","163803.4939999925","12555.29100005515","162071.5404000366","NA","162684.96199999936","161853.8261000067","Extended template","0","1.1171001242473722","67","yes","1024"
"0","0","0.016654413604341885","0.016654413604341885","white","yes","psycho","psycho","psycho","0","uniform","0","undefined","0","a","1","0","70","1","1","0","0","0","0","NA","70","0","70","70","0","70","1","70","70","Wed Nov 29 10:05:17 2023","A template containing a practice and an experimental phase","yes","언어학과심리실험_B조_기말과제용심리실험.osexp","E:\2023년도 1학기\언어학과심리실험","no","mono","no","18","no","black","no","no","768","psycho","67","67","0","E:\2023년도 1학기\언어학과심리실험\quickrun.csv","psycho","Lentiform Loewenfeld","3.3.14","no","학적","artifactual","same phoneme","0","None","NA","n","NA","n","None","a","0.015400000847876072","NA","1177.1223999094218","NA","5541.749100084417","0.015400000847876072","1936.3773999502882","2","psycho","1024","2","48000","-16","experiment","999","odd","학술","artifactual","NA","164616.42340000253","20435.483500012197","20435.440800036304","NA","19257.25810008589","6922.592999995686","20435.005400096998","NA","163893.10740004294","7012.5683000078425","166659.0298000956","166659.4176000217","12555.29100005515","164110.09030009154","NA","164721.784900059","163879.6100000618","Extended template","0","1.1325001250952482","68","yes","1024"
"0","0","0.01664927728690099","0.01664927728690099","white","yes","psycho","psycho","psycho","0","uniform","0","undefined","0","a","1","0","71","1","1","0","0","0","0","NA","71","0","71","71","0","71","1","71","71","Wed Nov 29 10:05:17 2023","A template containing a practice and an experimental phase","yes","언어학과심리실험_B조_기말과제용심리실험.osexp","E:\2023년도 1학기\언어학과심리실험","no","mono","no","18","no","black","no","no","768","psycho","68","68","0","E:\2023년도 1학기\언어학과심리실험\quickrun.csv","psycho","Lentiform Loewenfeld","3.3.14","no","로봇","artifactual","same phoneme","0","None","NA","n","NA","n","None","a","0.016300007700920105","NA","1177.1223999094218","NA","5541.749100084417","0.016300007700920105","880.2227000705898","2","psycho","1024","2","48000","-16","experiment","999","odd","로켓","artifactual","NA","167461.25660010148","20435.483500012197","20435.440800036304","NA","19257.25810008589","6922.592999995686","20435.005400096998","NA","166746.2852000026","7012.5683000078425","168447.3457999993","168447.77450000402","12555.29100005515","166953.50320008583","NA","167566.03069999255","166734.60339999292","Extended template","0","1.1488001327961683","69","yes","1024"
"0","0","0.016628573316016367","0.016628573316016367","white","yes","psycho","psycho","psycho","0","uniform","0","undefined","0","a","1","0","72","1","1","0","0","0","0","NA","72","0","72","72","0","72","1","72","72","Wed Nov 29 10:05:17 2023","A template containing a practice and an experimental phase","yes","언어학과심리실험_B조_기말과제용심리실험.osexp","E:\2023년도 1학기\언어학과심리실험","no","mono","no","18","no","black","no","no","768","psycho","69","69","0","E:\2023년도 1학기\언어학과심리실험\quickrun.csv","psycho","Lentiform Loewenfeld","3.3.14","no","키보드","artifactual","similar-environmental","0","None","NA","n","NA","n","None","a","0.015199999324977398","NA","1177.1223999094218","NA","5541.749100084417","0.015199999324977398","2886.414699954912","2","psycho","1024","2","48000","-16","experiment","999","odd","컴퓨터","artifactual","NA","169258.72200005688","20435.483500012197","20435.440800036304","NA","19257.25810008589","6922.592999995686","20435.005400096998","NA","168534.73080007825","7012.5683000078425","172251.61670008674","172252.01430008747","12555.29100005515","168742.8130999906","NA","169363.84440003894","168523.55200005695","Extended template","0","1.1640001321211457","70","yes","1024"
"0","0","0.016611269478436927","0.016611269478436927","white","yes","psycho","psycho","psycho","0","uniform","0","undefined","0","a","1","0","73","1","1","0","0","0","0","NA","73","0","73","73","0","73","1","73","73","Wed Nov 29 10:05:17 2023","A template containing a practice and an experimental phase","yes","언어학과심리실험_B조_기말과제용심리실험.osexp","E:\2023년도 1학기\언어학과심리실험","no","mono","no","18","no","black","no","no","768","psycho","70","70","0","E:\2023년도 1학기\언어학과심리실험\quickrun.csv","psycho","Lentiform Loewenfeld","3.3.14","no","컴퓨터","artifactual","similar-environmental","0","None","NA","n","NA","n","None","a","0.015400000847876072","NA","1177.1223999094218","NA","5541.749100084417","0.015400000847876072","1213.168799993582","2","psycho","1024","2","48000","-16","experiment","999","odd","키보드","artifactual","NA","173059.88469999284","20435.483500012197","20435.440800036304","NA","19257.25810008589","6922.592999995686","20435.005400096998","NA","172344.86240008846","7012.5683000078425","174379.15610009804","174379.55700000748","12555.29100005515","172553.32990002353","NA","173165.08470010012","172329.07060009893","Extended template","0","1.1794001329690218","71","yes","1024"
"0","0","0.016595835202477045","0.016595835202477045","white","yes","psycho","psycho","psycho","0","uniform","0","undefined","0","n","1","0","74","1","1","0","0","0","0","NA","74","0","74","74","0","74","1","74","74","Wed Nov 29 10:05:17 2023","A template containing a practice and an experimental phase","yes","언어학과심리실험_B조_기말과제용심리실험.osexp","E:\2023년도 1학기\언어학과심리실험","no","mono","no","18","no","black","no","no","768","psycho","71","71","0","E:\2023년도 1학기\언어학과심리실험\quickrun.csv","psycho","Lentiform Loewenfeld","3.3.14","no","모래","natural","similar-environmental","0","None","NA","n","NA","n","None","n","0.015500001609325409","NA","1177.1223999094218","NA","5541.749100084417","0.015500001609325409","598.8580000121146","2","psycho","1024","2","48000","-16","experiment","999","odd","자갈","natural","NA","175181.0883000726","20435.483500012197","20435.440800036304","NA","19257.25810008589","6922.592999995686","20435.005400096998","NA","174465.9157000715","7012.5683000078425","175887.08880008198","175887.49480003025","12555.29100005515","174672.23400005605","NA","175287.32370003127","174455.71730006486","Extended template","0","1.1949001345783472","72","yes","1024"
"0","0","0.016589043024059846","0.016589043024059846","white","yes","psycho","psycho","psycho","0","uniform","0","undefined","0","n","0","0","75","1","1","0","0","0","0","NA","75","0","75","75","0","75","1","75","75","Wed Nov 29 10:05:17 2023","A template containing a practice and an experimental phase","yes","언어학과심리실험_B조_기말과제용심리실험.osexp","E:\2023년도 1학기\언어학과심리실험","no","mono","no","18","no","black","no","no","768","psycho","72","72","0","E:\2023년도 1학기\언어학과심리실험\quickrun.csv","psycho","Lentiform Loewenfeld","3.3.14","no","패딩","artifactual","similar-environmental","0","None","NA","n","NA","n","None","a","0.01610000617802143","NA","1177.1223999094218","NA","5541.749100084417","0.01610000617802143","1226.0730999987572","2","psycho","1024","2","48000","-16","experiment","999","odd","겨울","natural","NA","176695.1244000811","20435.483500012197","20435.440800036304","NA","19257.25810008589","6922.592999995686","20435.005400096998","NA","175979.8013000982","7012.5683000078425","178027.21990004648","178027.6557999896","12555.29100005515","176186.49270001333","NA","176800.13280001003","175965.70649999194","Extended template","0","1.2110001407563686","73","yes","1024"
"0","0","0.016564866716696602","0.016564866716696602","white","yes","psycho","psycho","psycho","0","uniform","0","undefined","0","a","1","0","76","1","1","0","0","0","0","NA","76","0","76","76","0","76","1","76","76","Wed Nov 29 10:05:17 2023","A template containing a practice and an experimental phase","yes","언어학과심리실험_B조_기말과제용심리실험.osexp","E:\2023년도 1학기\언어학과심리실험","no","mono","no","18","no","black","no","no","768","psycho","73","73","0","E:\2023년도 1학기\언어학과심리실험\quickrun.csv","psycho","Lentiform Loewenfeld","3.3.14","no","벌레","natural","same phoneme","0","None","NA","n","NA","n","None","a","0.01479999627918005","NA","1177.1223999094218","NA","5541.749100084417","0.01479999627918005","3343.799800029956","2","psycho","1024","2","48000","-16","experiment","999","odd","발레","artifactual","NA","178841.29930008203","20435.483500012197","20435.440800036304","NA","19257.25810008589","6922.592999995686","20435.005400096998","NA","178117.5567000173","7012.5683000078425","182291.0723000532","182291.49199998938","12555.29100005515","178333.23129999917","NA","178946.37310004327","178103.34380005952","Extended template","0","1.2258001370355487","74","yes","1024"
"0","0","0.01655200185875098","0.01655200185875098","white","yes","psycho","psycho","psycho","0","uniform","0","undefined","0","x","1","0","77","1","1","0","0","0","0","NA","77","0","77","77","0","77","1","77","77","Wed Nov 29 10:05:17 2023","A template containing a practice and an experimental phase","yes","언어학과심리실험_B조_기말과제용심리실험.osexp","E:\2023년도 1학기\언어학과심리실험","no","mono","no","18","no","black","no","no","768","psycho","74","74","0","E:\2023년도 1학기\언어학과심리실험\quickrun.csv","psycho","Lentiform Loewenfeld","3.3.14","no","냉장고","artifactual","non-word","0","None","NA","n","NA","n","None","x","0.015600002370774746","NA","1177.1223999094218","NA","5541.749100084417","0.015600002370774746","1952.1661000326276","2","psycho","1024","2","48000","-16","experiment","999","odd","로방삭","non-word","NA","183100.36190005485","20435.483500012197","20435.440800036304","NA","19257.25810008589","6922.592999995686","20435.005400096998","NA","182385.06100000814","7012.5683000078425","185163.0581000354","185163.4768000804","12555.29100005515","182591.65290009696","NA","183209.99190001749","182369.22530003358","Extended template","0","1.2414001394063234","75","yes","1024"
"0","0","0.016543422948176924","0.016543422948176924","white","yes","psycho","psycho","psycho","0","uniform","0","undefined","0","n","1","0","78","1","1","0","0","0","0","NA","78","0","78","78","0","78","1","78","78","Wed Nov 29 10:05:17 2023","A template containing a practice and an experimental phase","yes","언어학과심리실험_B조_기말과제용심리실험.osexp","E:\2023년도 1학기\언어학과심리실험","no","mono","no","18","no","black","no","no","768","psycho","75","75","0","E:\2023년도 1학기\언어학과심리실험\quickrun.csv","psycho","Lentiform Loewenfeld","3.3.14","no","풍차","artifactual","no-correlation","0","None","NA","n","NA","n","None","n","0.015900004655122757","NA","1177.1223999094218","NA","5541.749100084417","0.015900004655122757","1147.5037999916822","2","psycho","1024","2","48000","-16","experiment","999","odd","흙","natural","NA","185962.0159000624","20435.483500012197","20435.440800036304","NA","19257.25810008589","6922.592999995686","20435.005400096998","NA","185246.76420004107","7012.5683000078425","187215.07370006293","187215.50260006916","12555.29100005515","185453.59570009168","NA","186066.73540000338","185237.9377000034","Extended template","0","1.2573001440614462","76","yes","1024"
"0","0","0.016536365577636603","0.016536365577636603","white","yes","psycho","psycho","psycho","0","uniform","0","undefined","0","a","1","0","79","1","1","0","0","0","0","NA","79","0","79","79","0","79","1","79","79","Wed Nov 29 10:05:17 2023","A template containing a practice and an experimental phase","yes","언어학과심리실험_B조_기말과제용심리실험.osexp","E:\2023년도 1학기\언어학과심리실험","no","mono","no","18","no","black","no","no","768","psycho","76","76","0","E:\2023년도 1학기\언어학과심리실험\quickrun.csv","psycho","Lentiform Loewenfeld","3.3.14","no","바다","natural","similar-environmental","0","None","NA","n","NA","n","None","a","0.016000005416572094","NA","1177.1223999094218","NA","5541.749100084417","0.016000005416572094","1289.460300002247","2","psycho","1024","2","48000","-16","experiment","999","odd","배","artifactual","NA","188024.91580008063","20435.483500012197","20435.440800036304","NA","19257.25810008589","6922.592999995686","20435.005400096998","NA","187307.6342000859","7012.5683000078425","189423.65240002982","189424.08520006575","12555.29100005515","187513.55720008723","NA","188132.77770008426","187291.36460006703","Extended template","0","1.2733001494780183","77","yes","1024"
"0","0","0.016532053287403706","0.016532053287403706","white","yes","psycho","psycho","psycho","0","uniform","0","undefined","0","n","1","0","80","1","1","0","0","0","0","NA","80","0","80","80","0","80","1","80","80","Wed Nov 29 10:05:17 2023","A template containing a practice and an experimental phase","yes","언어학과심리실험_B조_기말과제용심리실험.osexp","E:\2023년도 1학기\언어학과심리실험","no","mono","no","18","no","black","no","no","768","psycho","77","77","0","E:\2023년도 1학기\언어학과심리실험\quickrun.csv","psycho","Lentiform Loewenfeld","3.3.14","no","소방서","artifactual","same phoneme","0","None","NA","n","NA","n","None","n","0.016200006939470768","NA","1177.1223999094218","NA","5541.749100084417","0.016200006939470768","698.2213000301272","2","psycho","1024","2","48000","-16","experiment","999","odd","소나무","natural","NA","190224.6156000765","20435.483500012197","20435.440800036304","NA","19257.25810008589","6922.592999995686","20435.005400096998","NA","189514.42180003505","7012.5683000078425","191043.06430008728","191043.4954999946","12555.29100005515","189720.68300005049","NA","190343.92430004664","189499.16490004398","Extended template","0","1.289500156417489","78","yes","1024"
"0","0","0.016530381833922258","0.016530381833922258","white","yes","psycho","psycho","psycho","0","uniform","0","undefined","0","n","0","0","81","1","1","0","0","0","0","NA","81","0","81","81","0","81","1","81","81","Wed Nov 29 10:05:17 2023","A template containing a practice and an experimental phase","yes","언어학과심리실험_B조_기말과제용심리실험.osexp","E:\2023년도 1학기\언어학과심리실험","no","mono","no","18","no","black","no","no","768","psycho","78","78","0","E:\2023년도 1학기\언어학과심리실험\quickrun.csv","psycho","Lentiform Loewenfeld","3.3.14","no","달","artifactual","same phoneme","0","None","NA","n","NA","n","None","a","0.016400008462369442","NA","1177.1223999094218","NA","5541.749100084417","0.016400008462369442","1462.9221999784932","2","psycho","1024","2","48000","-16","experiment","999","odd","달력","natural","NA","191857.34410001896","20435.483500012197","20435.440800036304","NA","19257.25810008589","6922.592999995686","20435.005400096998","NA","191127.93820002116","7012.5683000078425","193431.31110002287","193431.75540002994","12555.29100005515","191352.0838000113","NA","191967.30070002377","191114.63950003963","Extended template","0","1.3059001648798585","79","yes","1024"
"0","0","0.016621252871118486","0.016621252871118486","white","yes","psycho","psycho","psycho","0","uniform","0","undefined","0","a","1","0","82","1","1","0","0","0","0","NA","82","0","82","82","0","82","1","82","82","Wed Nov 29 10:05:17 2023","A template containing a practice and an experimental phase","yes","언어학과심리실험_B조_기말과제용심리실험.osexp","E:\2023년도 1학기\언어학과심리실험","no","mono","no","18","no","black","no","no","768","psycho","79","79","0","E:\2023년도 1학기\언어학과심리실험\quickrun.csv","psycho","Lentiform Loewenfeld","3.3.14","no","구름","natural","same phoneme","0","None","NA","n","NA","n","None","a","0.02380006480962038","NA","1177.1223999094218","NA","5541.749100084417","0.02380006480962038","853.6119000054896","2","psycho","1024","2","48000","-16","experiment","999","odd","구두","artifactual","NA","194235.5116000399","20435.483500012197","20435.440800036304","NA","19257.25810008589","6922.592999995686","20435.005400096998","NA","193523.84430007078","7012.5683000078425","195195.1751000015","195195.71700005326","12555.29100005515","193730.06660002284","NA","194340.624100063","193508.99370003026","Extended template","0","1.3297002296894789","80","yes","1024"
"0","0","0.01665679335502195","0.01665679335502195","white","yes","psycho","psycho","psycho","0","uniform","0","undefined","0","a","1","0","83","1","1","0","0","0","0","NA","83","0","83","83","0","83","1","83","83","Wed Nov 29 10:05:17 2023","A template containing a practice and an experimental phase","yes","언어학과심리실험_B조_기말과제용심리실험.osexp","E:\2023년도 1학기\언어학과심리실험","no","mono","no","18","no","black","no","no","768","psycho","80","80","0","E:\2023년도 1학기\언어학과심리실험\quickrun.csv","psycho","Lentiform Loewenfeld","3.3.14","no","과일","natural","no-correlation","0","None","NA","n","NA","n","None","a","0.01950003206729889","NA","1177.1223999094218","NA","5541.749100084417","0.01950003206729889","2091.0609000129625","2","psycho","1024","2","48000","-16","experiment","999","odd","가방","artifactual","NA","195994.15990000125","20435.483500012197","20435.440800036304","NA","19257.25810008589","6922.592999995686","20435.005400096998","NA","195279.05360003933","7012.5683000078425","198191.48020003922","198191.93860003725","12555.29100005515","195486.8378000101","NA","196099.1641000146","195271.21810009703","Extended template","0","1.3492002617567778","81","yes","1024"
