"acc","accuracy","average_response_time","avg_rt","background","bidi","canvas_backend","clock_backend","color_backend","compensation","coordinates","correct","correct_instructions","correct_keyboard_response","correct_response","correct_target","count_about_this_template","count_blank","count_block_loop","count_block_sequence","count_end_of_experiment","count_end_of_practice","count_experiment","count_experimental_loop","count_feedback","count_fixation","count_instructions","count_keyboard_response","count_logger","count_practice_loop","count_prime","count_reset_feedback","count_target","count_trial_sequence","datetime","description","disable_garbage_collection","experiment_file","experiment_path","font_bold","font_family","font_italic","font_size","font_underline","foreground","form_clicks","fullscreen","height","keyboard_backend","live_row","live_row_block_loop","live_row_practice_loop","logfile","mouse_backend","opensesame_codename","opensesame_version","practice","prime","prime_condition","relation","repeat_cycle","response","response_end_of_experiment","response_end_of_practice","response_feedback","response_instructions","response_keyboard_response","response_target","response_time","response_time_end_of_experiment","response_time_end_of_practice","response_time_feedback","response_time_instructions","response_time_keyboard_response","response_time_target","round_decimals","sampler_backend","sound_buf_size","sound_channels","sound_freq","sound_sample_size","start","subject_nr","subject_parity","target","target_condition","time_about_this_template","time_blank","time_block_loop","time_block_sequence","time_end_of_experiment","time_end_of_practice","time_experiment","time_experimental_loop","time_feedback","time_fixation","time_instructions","time_keyboard_response","time_logger","time_practice_loop","time_prime","time_reset_feedback","time_target","time_trial_sequence","title","total_correct","total_response_time","total_responses","uniform_coordinates","width"
"0","0","0.01600012183189392","0.01600012183189392","white","yes","psycho","psycho","psycho","0","uniform","0","undefined","0","n","1","0","0","0","0","0","0","0","0","NA","0","0","0","0","0","0","0","0","0","Tue Dec  5 17:44:10 2023","A template containing a practice and an experimental phase","yes","언어학과심리실험_B조_기말과제용심리실험.osexp","E:\2023년도 1학기\언어학과심리실험","no","mono","no","18","no","black","no","no","768","psycho","0","0","0","E:\2023년도 1학기\언어학과심리실험\quickrun.csv","psycho","Lentiform Loewenfeld","3.3.14","yes","멜블옴","non-word","non-word","0","None","NA","NA","NA","space","None","n","0.01600012183189392","NA","NA","NA","16460.904199862853","0.01600012183189392","2962.717300048098","2","psycho","1024","2","48000","-16","experiment","999","odd","폭포","natural","NA","25234.268700005487","24407.965200021863","24407.796599902213","NA","NA","7804.495600052178","NA","NA","24511.165499920025","7944.354200037196","28306.735399877653","28306.824899977073","24407.32629992999","24728.053499944508","NA","25342.6319998689","24492.282799910754","Extended template","0","0.01600012183189392","1","yes","1024"
"0","0","0.016850070096552372","0.016850070096552372","white","yes","psycho","psycho","psycho","0","uniform","0","undefined","0","a","1","0","1","0","0","0","0","0","0","NA","1","0","1","1","0","1","0","1","1","Tue Dec  5 17:44:10 2023","A template containing a practice and an experimental phase","yes","언어학과심리실험_B조_기말과제용심리실험.osexp","E:\2023년도 1학기\언어학과심리실험","no","mono","no","18","no","black","no","no","768","psycho","1","1","0","E:\2023년도 1학기\언어학과심리실험\quickrun.csv","psycho","Lentiform Loewenfeld","3.3.14","yes","바람","natural","similar-environmental","0","None","NA","NA","NA","space","None","a","0.017700018361210823","NA","NA","NA","16460.904199862853","0.017700018361210823","1488.175299949944","2","psycho","1024","2","48000","-16","experiment","999","odd","창문","artifactual","NA","29152.298199944198","24407.965200021863","24407.796599902213","NA","NA","7804.495600052178","NA","NA","28429.50259987265","7944.354200037196","30746.65439990349","30746.774799888954","24407.32629992999","28645.053499843925","NA","29257.11390003562","28418.928999919444","Extended template","0","0.033700140193104744","2","yes","1024"
"0","0","0.019399992500742275","0.019399992500742275","white","yes","psycho","psycho","psycho","0","uniform","0","undefined","0","a","0","0","2","0","0","0","0","0","0","NA","2","0","2","2","0","2","0","2","2","Tue Dec  5 17:44:10 2023","A template containing a practice and an experimental phase","yes","언어학과심리실험_B조_기말과제용심리실험.osexp","E:\2023년도 1학기\언어학과심리실험","no","mono","no","18","no","black","no","no","768","psycho","2","2","0","E:\2023년도 1학기\언어학과심리실험\quickrun.csv","psycho","Lentiform Loewenfeld","3.3.14","yes","악어","natural","same phoneme","0","None","NA","NA","NA","space","None","n","0.024499837309122086","NA","NA","NA","16460.904199862853","0.024499837309122086","995.3144998289645","2","psycho","1024","2","48000","-16","experiment","999","odd","악기","artifactual","NA","31566.237499937415","24407.965200021863","24407.796599902213","NA","NA","7804.495600052178","NA","NA","30849.69179984182","7944.354200037196","32678.255300037563","32678.411100059748","24407.32629992999","31056.237200042233","NA","31682.01270001009","30837.5834999606","Extended template","0","0.05819997750222683","3","yes","1024"
"0","0","0.015999889001250267","0.015999889001250267","white","yes","psycho","psycho","psycho","0","uniform","0","undefined","0","n","1","0","3","1","1","0","0","0","0","NA","3","0","3","3","0","3","1","3","3","Tue Dec  5 17:44:10 2023","A template containing a practice and an experimental phase","yes","언어학과심리실험_B조_기말과제용심리실험.osexp","E:\2023년도 1학기\언어학과심리실험","no","mono","no","18","no","black","no","no","768","psycho","0","0","0","E:\2023년도 1학기\언어학과심리실험\quickrun.csv","psycho","Lentiform Loewenfeld","3.3.14","no","전등","artifactual","no-correlation","0","None","NA","space","NA","space","None","n","0.015999889001250267","NA","4901.745700044557","NA","16460.904199862853","0.015999889001250267","1834.0559001080692","2","psycho","1024","2","48000","-16","experiment","999","odd","소","natural","NA","38453.64749990404","37683.52129985578","37683.47349995747","NA","32779.63129989803","7804.495600052178","37683.03479999304","NA","37730.46909994446","7944.354200037196","40398.9635000471","40399.06159997918","24407.32629992999","37945.24889998138","NA","38563.224399928","37722.87110006437","Extended template","0","0.015999889001250267","1","yes","1024"
"0","0","0.016249949112534523","0.016249949112534523","white","yes","psycho","psycho","psycho","0","uniform","0","undefined","0","n","1","0","4","1","1","0","0","0","0","NA","4","0","4","4","0","4","1","4","4","Tue Dec  5 17:44:10 2023","A template containing a practice and an experimental phase","yes","언어학과심리실험_B조_기말과제용심리실험.osexp","E:\2023년도 1학기\언어학과심리실험","no","mono","no","18","no","black","no","no","768","psycho","1","1","0","E:\2023년도 1학기\언어학과심리실험\quickrun.csv","psycho","Lentiform Loewenfeld","3.3.14","no","등산로","artifactual","similar-environmental","0","None","NA","space","NA","space","None","n","0.01650000922381878","NA","4901.745700044557","NA","16460.904199862853","0.01650000922381878","1141.1234999541193","2","psycho","1024","2","48000","-16","experiment","999","odd","산","natural","NA","41230.86120001972","37683.52129985578","37683.47349995747","NA","32779.63129989803","7804.495600052178","37683.03479999304","NA","40508.159699849784","7944.354200037196","42482.85569995642","42482.956799911335","24407.32629992999","40723.98049989715","NA","41340.174899902195","40497.69699992612","Extended template","0","0.032499898225069046","2","yes","1024"
"0","0","0.015999966611464817","0.015999966611464817","white","yes","psycho","psycho","psycho","0","uniform","0","undefined","0","n","1","0","5","1","1","0","0","0","0","NA","5","0","5","5","0","5","1","5","5","Tue Dec  5 17:44:10 2023","A template containing a practice and an experimental phase","yes","언어학과심리실험_B조_기말과제용심리실험.osexp","E:\2023년도 1학기\언어학과심리실험","no","mono","no","18","no","black","no","no","768","psycho","2","2","0","E:\2023년도 1학기\언어학과심리실험\quickrun.csv","psycho","Lentiform Loewenfeld","3.3.14","no","달력","artifactual","same phoneme","0","None","NA","space","NA","space","None","n","0.015500001609325409","NA","4901.745700044557","NA","16460.904199862853","0.015500001609325409","2221.258700126782","2","psycho","1024","2","48000","-16","experiment","999","odd","달","natural","NA","43311.102899955586","37683.52129985578","37683.47349995747","NA","32779.63129989803","7804.495600052178","37683.03479999304","NA","42588.42519996688","7944.354200037196","45642.48869987205","45642.5909998361","24407.32629992999","42803.36689995602","NA","43419.97749987058","42579.868299886584","Extended template","0","0.047999899834394455","3","yes","1024"
"0","0","0.01585000427439809","0.01585000427439809","white","yes","psycho","psycho","psycho","0","uniform","0","undefined","0","a","1","0","6","1","1","0","0","0","0","NA","6","0","6","6","0","6","1","6","6","Tue Dec  5 17:44:10 2023","A template containing a practice and an experimental phase","yes","언어학과심리실험_B조_기말과제용심리실험.osexp","E:\2023년도 1학기\언어학과심리실험","no","mono","no","18","no","black","no","no","768","psycho","3","3","0","E:\2023년도 1학기\언어학과심리실험\quickrun.csv","psycho","Lentiform Loewenfeld","3.3.14","no","해변","natural","similar-environmental","0","None","NA","space","NA","space","None","a","0.015400117263197899","NA","4901.745700044557","NA","16460.904199862853","0.015400117263197899","1088.337399996817","2","psycho","1024","2","48000","-16","experiment","999","odd","파라솔","artifactual","NA","46497.11259989999","37683.52129985578","37683.47349995747","NA","32779.63129989803","7804.495600052178","37683.03479999304","NA","45773.64539983682","7944.354200037196","47694.94799990207","47695.05569990724","24407.32629992999","45988.68269985542","NA","46604.96159992181","45760.499799856916","Extended template","0","0.06340001709759235","4","yes","1024"
"0","0","0.015940004959702492","0.015940004959702492","white","yes","psycho","psycho","psycho","0","uniform","0","undefined","0","a","1","0","7","1","1","0","0","0","0","NA","7","0","7","7","0","7","1","7","7","Tue Dec  5 17:44:10 2023","A template containing a practice and an experimental phase","yes","언어학과심리실험_B조_기말과제용심리실험.osexp","E:\2023년도 1학기\언어학과심리실험","no","mono","no","18","no","black","no","no","768","psycho","4","4","0","E:\2023년도 1학기\언어학과심리실험\quickrun.csv","psycho","Lentiform Loewenfeld","3.3.14","no","플피","non-word","non-word","0","None","NA","space","NA","space","None","a","0.016300007700920105","NA","4901.745700044557","NA","16460.904199862853","0.016300007700920105","1386.166299926117","2","psycho","1024","2","48000","-16","experiment","999","odd","책상","artifactual","NA","48543.58859988861","37683.52129985578","37683.47349995747","NA","32779.63129989803","7804.495600052178","37683.03479999304","NA","47820.04430005327","7944.354200037196","50038.45989983529","50038.576799910516","24407.32629992999","48035.33330000937","NA","48651.243899948895","47804.260900011286","Extended template","0","0.07970002479851246","5","yes","1024"
"0","0","0.0160500251998504","0.0160500251998504","white","yes","psycho","psycho","psycho","0","uniform","0","undefined","0","n","1","0","8","1","1","0","0","0","0","NA","8","0","8","8","0","8","1","8","8","Tue Dec  5 17:44:10 2023","A template containing a practice and an experimental phase","yes","언어학과심리실험_B조_기말과제용심리실험.osexp","E:\2023년도 1학기\언어학과심리실험","no","mono","no","18","no","black","no","no","768","psycho","5","5","0","E:\2023년도 1학기\언어학과심리실험\quickrun.csv","psycho","Lentiform Loewenfeld","3.3.14","no","대학교","artifactual","no-correlation","0","None","NA","space","NA","space","None","n","0.016600126400589943","NA","4901.745700044557","NA","16460.904199862853","0.016600126400589943","703.2753999810666","2","psycho","1024","2","48000","-16","experiment","999","odd","계곡","natural","NA","50880.83829986863","37683.52129985578","37683.47349995747","NA","32779.63129989803","7804.495600052178","37683.03479999304","NA","50164.8054998368","7944.354200037196","51690.61509985477","51690.73430006392","24407.32629992999","50372.8535999544","NA","50985.97629996948","50156.62300004624","Extended template","0","0.0963001511991024","6","yes","1024"
"0","0","0.016028593693460737","0.016028593693460737","white","yes","psycho","psycho","psycho","0","uniform","0","undefined","0","n","1","0","9","1","1","0","0","0","0","NA","9","0","9","9","0","9","1","9","9","Tue Dec  5 17:44:10 2023","A template containing a practice and an experimental phase","yes","언어학과심리실험_B조_기말과제용심리실험.osexp","E:\2023년도 1학기\언어학과심리실험","no","mono","no","18","no","black","no","no","768","psycho","6","6","0","E:\2023년도 1학기\언어학과심리실험\quickrun.csv","psycho","Lentiform Loewenfeld","3.3.14","no","장슈","non-word","non-word","0","None","NA","space","NA","space","None","n","0.015900004655122757","NA","4901.745700044557","NA","16460.904199862853","0.015900004655122757","840.9696000162512","2","psycho","1024","2","48000","-16","experiment","999","odd","다람쥐","natural","NA","52536.24280006625","37683.52129985578","37683.47349995747","NA","32779.63129989803","7804.495600052178","37683.03479999304","NA","51812.53969995305","7944.354200037196","53486.68579990044","53486.81050003506","24407.32629992999","52028.17069995217","NA","52644.318899838254","51802.93809995055","Extended template","0","0.11220015585422516","7","yes","1024"
"0","0","0.016337522538378835","0.016337522538378835","white","yes","psycho","psycho","psycho","0","uniform","0","undefined","0","x","0","0","10","1","1","0","0","0","0","NA","10","0","10","10","0","10","1","10","10","Tue Dec  5 17:44:10 2023","A template containing a practice and an experimental phase","yes","언어학과심리실험_B조_기말과제용심리실험.osexp","E:\2023년도 1학기\언어학과심리실험","no","mono","no","18","no","black","no","no","768","psycho","7","7","0","E:\2023년도 1학기\언어학과심리실험\quickrun.csv","psycho","Lentiform Loewenfeld","3.3.14","no","절벽","natural","non-word","0","None","NA","space","NA","space","None","a","0.01850002445280552","NA","4901.745700044557","NA","16460.904199862853","0.01850002445280552","967.4329999834299","2","psycho","1024","2","48000","-16","experiment","999","odd","물로프","non-word","NA","54308.14930004999","37683.52129985578","37683.47349995747","NA","32779.63129989803","7804.495600052178","37683.03479999304","NA","53585.530899930745","7944.354200037196","55386.58469985239","55386.74580003135","24407.32629992999","53800.635599996895","NA","54417.85510000773","53572.0708000008","Extended template","0","0.13070018030703068","8","yes","1024"
"0","0","0.016211144005258877","0.016211144005258877","white","yes","psycho","psycho","psycho","0","uniform","0","undefined","0","n","1","0","11","1","1","0","0","0","0","NA","11","0","11","11","0","11","1","11","11","Tue Dec  5 17:44:10 2023","A template containing a practice and an experimental phase","yes","언어학과심리실험_B조_기말과제용심리실험.osexp","E:\2023년도 1학기\언어학과심리실험","no","mono","no","18","no","black","no","no","768","psycho","8","8","0","E:\2023년도 1학기\언어학과심리실험\quickrun.csv","psycho","Lentiform Loewenfeld","3.3.14","no","늪","natural","similar-environmental","0","None","NA","space","NA","space","None","n","0.015200115740299225","NA","4901.745700044557","NA","16460.904199862853","0.015200115740299225","800.4091000184417","2","psycho","1024","2","48000","-16","experiment","999","odd","악어","natural","NA","56212.97540003434","37683.52129985578","37683.47349995747","NA","32779.63129989803","7804.495600052178","37683.03479999304","NA","55491.48019985296","7944.354200037196","57122.52849992365","57122.66049999744","24407.32629992999","55705.83730004728","NA","56320.845999987796","55482.778899837285","Extended template","0","0.1459002960473299","9","yes","1024"
"0","0","0.016280030831694603","0.016280030831694603","white","yes","psycho","psycho","psycho","0","uniform","0","undefined","0","n","1","0","12","1","1","0","0","0","0","NA","12","0","12","12","0","12","1","12","12","Tue Dec  5 17:44:10 2023","A template containing a practice and an experimental phase","yes","언어학과심리실험_B조_기말과제용심리실험.osexp","E:\2023년도 1학기\언어학과심리실험","no","mono","no","18","no","black","no","no","768","psycho","9","9","0","E:\2023년도 1학기\언어학과심리실험\quickrun.csv","psycho","Lentiform Loewenfeld","3.3.14","no","우산","artifactual","similar-environmental","0","None","NA","space","NA","space","None","n","0.016900012269616127","NA","4901.745700044557","NA","16460.904199862853","0.016900012269616127","1033.8075999170542","2","psycho","1024","2","48000","-16","experiment","999","odd","비","natural","NA","57942.8379999008","37683.52129985578","37683.47349995747","NA","32779.63129989803","7804.495600052178","37683.03479999304","NA","57227.635599905625","7944.354200037196","59086.35300002061","59086.48970001377","24407.32629992999","57435.300200013444","NA","58051.43560003489","57214.147499995306","Extended template","0","0.16280030831694603","10","yes","1024"
"0","0","0.01633639278059656","0.01633639278059656","white","yes","psycho","psycho","psycho","0","uniform","0","undefined","0","a","1","0","13","1","1","0","0","0","0","NA","13","0","13","13","0","13","1","13","13","Tue Dec  5 17:44:10 2023","A template containing a practice and an experimental phase","yes","언어학과심리실험_B조_기말과제용심리실험.osexp","E:\2023년도 1학기\언어학과심리실험","no","mono","no","18","no","black","no","no","768","psycho","10","10","0","E:\2023년도 1학기\언어학과심리실험\quickrun.csv","psycho","Lentiform Loewenfeld","3.3.14","no","기차","artifactual","no-correlation","0","None","NA","space","NA","space","None","a","0.016900012269616127","NA","4901.745700044557","NA","16460.904199862853","0.016900012269616127","886.7866999935359","2","psycho","1024","2","48000","-16","experiment","999","odd","가방","artifactual","NA","59905.87869985029","37683.52129985578","37683.47349995747","NA","32779.63129989803","7804.495600052178","37683.03479999304","NA","59182.354300050065","7944.354200037196","60902.52360003069","60902.66639995389","24407.32629992999","59399.06680001877","NA","60014.512500027195","59167.95559995808","Extended template","0","0.17970032058656216","11","yes","1024"
"0","0","0.01630002710347374","0.01630002710347374","white","yes","psycho","psycho","psycho","0","uniform","0","undefined","0","a","1","0","14","1","1","0","0","0","0","NA","14","0","14","14","0","14","1","14","14","Tue Dec  5 17:44:10 2023","A template containing a practice and an experimental phase","yes","언어학과심리실험_B조_기말과제용심리실험.osexp","E:\2023년도 1학기\언어학과심리실험","no","mono","no","18","no","black","no","no","768","psycho","11","11","0","E:\2023년도 1학기\언어학과심리실험\quickrun.csv","psycho","Lentiform Loewenfeld","3.3.14","no","꽃","natural","no-correlation","0","None","NA","space","NA","space","None","a","0.015900004655122757","NA","4901.745700044557","NA","16460.904199862853","0.015900004655122757","1104.756399989128","2","psycho","1024","2","48000","-16","experiment","999","odd","풍차","artifactual","NA","61720.93979991041","37683.52129985578","37683.47349995747","NA","32779.63129989803","7804.495600052178","37683.03479999304","NA","61004.0875999257","7944.354200037196","62934.80659998022","62934.95410005562","24407.32629992999","61210.988000035286","NA","61828.53149995208","60988.39879990555","Extended template","0","0.1956003252416849","12","yes","1024"
"0","0","0.016246170092087526","0.016246170092087526","white","yes","psycho","psycho","psycho","0","uniform","0","undefined","0","a","1","0","15","1","1","0","0","0","0","NA","15","0","15","15","0","15","1","15","15","Tue Dec  5 17:44:10 2023","A template containing a practice and an experimental phase","yes","언어학과심리실험_B조_기말과제용심리실험.osexp","E:\2023년도 1학기\언어학과심리실험","no","mono","no","18","no","black","no","no","768","psycho","12","12","0","E:\2023년도 1학기\언어학과심리실험\quickrun.csv","psycho","Lentiform Loewenfeld","3.3.14","no","선설수","non-word","non-word","0","None","NA","space","NA","space","None","a","0.015599885955452919","NA","4901.745700044557","NA","16460.904199862853","0.015599885955452919","975.3548000007868","2","psycho","1024","2","48000","-16","experiment","999","odd","시계","artifactual","NA","63742.072199936956","37683.52129985578","37683.47349995747","NA","32779.63129989803","7804.495600052178","37683.03479999304","NA","63025.43599996716","7944.354200037196","64826.77819998935","64826.92669983953","24407.32629992999","63232.64839989133","NA","63849.92649988271","63018.13800004311","Extended template","0","0.21120021119713783","13","yes","1024"
"0","0","0.01615001487412623","0.01615001487412623","white","yes","psycho","psycho","psycho","0","uniform","0","undefined","0","a","1","0","16","1","1","0","0","0","0","NA","16","0","16","16","0","16","1","16","16","Tue Dec  5 17:44:10 2023","A template containing a practice and an experimental phase","yes","언어학과심리실험_B조_기말과제용심리실험.osexp","E:\2023년도 1학기\언어학과심리실험","no","mono","no","18","no","black","no","no","768","psycho","13","13","0","E:\2023년도 1학기\언어학과심리실험\quickrun.csv","psycho","Lentiform Loewenfeld","3.3.14","no","악어","natural","same phoneme","0","None","NA","space","NA","space","None","a","0.014899997040629387","NA","4901.745700044557","NA","16460.904199862853","0.014899997040629387","1071.4960000477731","2","psycho","1024","2","48000","-16","experiment","999","odd","악기","artifactual","NA","65646.42099989578","37683.52129985578","37683.47349995747","NA","32779.63129989803","7804.495600052178","37683.03479999304","NA","64930.649399990216","7944.354200037196","66838.89859984629","66839.05049995519","24407.32629992999","65138.21169990115","NA","65765.75109991245","64907.96269988641","Extended template","0","0.22610020823776722","14","yes","1024"
"0","0","0.017026687661806744","0.017026687661806744","white","yes","psycho","psycho","psycho","0","uniform","0","undefined","0","n","1","0","17","1","1","0","0","0","0","NA","17","0","17","17","0","17","1","17","17","Tue Dec  5 17:44:10 2023","A template containing a practice and an experimental phase","yes","언어학과심리실험_B조_기말과제용심리실험.osexp","E:\2023년도 1학기\언어학과심리실험","no","mono","no","18","no","black","no","no","768","psycho","14","14","0","E:\2023년도 1학기\언어학과심리실험\quickrun.csv","psycho","Lentiform Loewenfeld","3.3.14","no","숲","natural","inclusive","0","None","NA","space","NA","space","None","n","0.029300106689333916","NA","4901.745700044557","NA","16460.904199862853","0.029300106689333916","1389.9475999642164","2","psycho","1024","2","48000","-16","experiment","999","odd","나무","natural","NA","67659.49680004269","37683.52129985578","37683.47349995747","NA","32779.63129989803","7804.495600052178","37683.03479999304","NA","66939.42680000328","7944.354200037196","69158.24879985303","69158.56799995527","24407.32629992999","67150.8200999815","NA","67767.30649988167","66920.20009993576","Extended template","0","0.25540031492710114","15","yes","1024"
"0","0","0.017518774257041514","0.017518774257041514","white","yes","psycho","psycho","psycho","0","uniform","0","undefined","0","a","1","0","18","1","1","0","0","0","0","NA","18","0","18","18","0","18","1","18","18","Tue Dec  5 17:44:10 2023","A template containing a practice and an experimental phase","yes","언어학과심리실험_B조_기말과제용심리실험.osexp","E:\2023년도 1학기\언어학과심리실험","no","mono","no","18","no","black","no","no","768","psycho","15","15","0","E:\2023년도 1학기\언어학과심리실험\quickrun.csv","psycho","Lentiform Loewenfeld","3.3.14","no","불","natural","similar-environmental","0","None","NA","space","NA","space","None","a","0.024900073185563087","NA","4901.745700044557","NA","16460.904199862853","0.024900073185563087","1185.5890001170337","2","psycho","1024","2","48000","-16","experiment","999","odd","소화기","artifactual","NA","69979.99869985506","37683.52129985578","37683.47349995747","NA","32779.63129989803","7804.495600052178","37683.03479999304","NA","69255.82269998267","7944.354200037196","71274.769899901","71275.08489997126","24407.32629992999","69472.70939988084","NA","70087.63049985282","69250.32219989225","Extended template","0","0.2803003881126642","16","yes","1024"
"0","0","0.017435317311216805","0.017435317311216805","white","yes","psycho","psycho","psycho","0","uniform","0","undefined","0","n","1","0","19","1","1","0","0","0","0","NA","19","0","19","19","0","19","1","19","19","Tue Dec  5 17:44:10 2023","A template containing a practice and an experimental phase","yes","언어학과심리실험_B조_기말과제용심리실험.osexp","E:\2023년도 1학기\언어학과심리실험","no","mono","no","18","no","black","no","no","768","psycho","16","16","0","E:\2023년도 1학기\언어학과심리실험\quickrun.csv","psycho","Lentiform Loewenfeld","3.3.14","no","박쥐","natural","similar-environmental","0","None","NA","space","NA","space","None","n","0.01610000617802143","NA","4901.745700044557","NA","16460.904199862853","0.01610000617802143","1514.5505000837147","2","psycho","1024","2","48000","-16","experiment","999","odd","동굴","natural","NA","72109.13979983889","37683.52129985578","37683.47349995747","NA","32779.63129989803","7804.495600052178","37683.03479999304","NA","71386.53069990687","7944.354200037196","73730.44859990478","73730.61609989963","24407.32629992999","71602.1582998801","NA","72214.73019989207","71371.58979987726","Extended template","0","0.29640039429068565","17","yes","1024"
"0","0","0.01737224455508921","0.01737224455508921","white","yes","psycho","psycho","psycho","0","uniform","0","undefined","0","x","1","0","20","1","1","0","0","0","0","NA","20","0","20","20","0","20","1","20","20","Tue Dec  5 17:44:10 2023","A template containing a practice and an experimental phase","yes","언어학과심리실험_B조_기말과제용심리실험.osexp","E:\2023년도 1학기\언어학과심리실험","no","mono","no","18","no","black","no","no","768","psycho","17","17","0","E:\2023년도 1학기\언어학과심리실험\quickrun.csv","psycho","Lentiform Loewenfeld","3.3.14","no","벨트","artifactual","non-word","0","None","NA","space","NA","space","None","x","0.016300007700920105","NA","4901.745700044557","NA","16460.904199862853","0.016300007700920105","2197.981199948117","2","psycho","1024","2","48000","-16","experiment","999","odd","진웬","non-word","NA","74555.68059999496","37683.52129985578","37683.47349995747","NA","32779.63129989803","7804.495600052178","37683.03479999304","NA","73839.9246998597","7944.354200037196","76862.80809994787","76862.98079998232","24407.32629992999","74047.83629998565","NA","74663.24370005168","73828.13289994374","Extended template","0","0.31270040199160576","18","yes","1024"
"0","0","0.01730002756965788","0.01730002756965788","white","yes","psycho","psycho","psycho","0","uniform","0","undefined","0","a","1","0","21","1","1","0","0","0","0","NA","21","0","21","21","0","21","1","21","21","Tue Dec  5 17:44:10 2023","A template containing a practice and an experimental phase","yes","언어학과심리실험_B조_기말과제용심리실험.osexp","E:\2023년도 1학기\언어학과심리실험","no","mono","no","18","no","black","no","no","768","psycho","18","18","0","E:\2023년도 1학기\언어학과심리실험\quickrun.csv","psycho","Lentiform Loewenfeld","3.3.14","no","옷","artifactual","inclusive","0","None","NA","space","NA","space","None","a","0.01600012183189392","NA","4901.745700044557","NA","16460.904199862853","0.01600012183189392","954.2289001401514","2","psycho","1024","2","48000","-16","experiment","999","odd","코트","artifactual","NA","77683.31320001744","37683.52129985578","37683.47349995747","NA","32779.63129989803","7804.495600052178","37683.03479999304","NA","76968.8174999319","7944.354200037196","78746.67979986407","78746.85549992137","24407.32629992999","77176.13909998909","NA","77791.06389987282","76954.84340004623","Extended template","0","0.3287005238234997","19","yes","1024"
"0","0","0.017240026500076056","0.017240026500076056","white","yes","psycho","psycho","psycho","0","uniform","0","undefined","0","a","1","0","22","1","1","0","0","0","0","NA","22","0","22","22","0","22","1","22","22","Tue Dec  5 17:44:10 2023","A template containing a practice and an experimental phase","yes","언어학과심리실험_B조_기말과제용심리실험.osexp","E:\2023년도 1학기\언어학과심리실험","no","mono","no","18","no","black","no","no","768","psycho","19","19","0","E:\2023년도 1학기\언어학과심리실험\quickrun.csv","psycho","Lentiform Loewenfeld","3.3.14","no","도미노","artifactual","same phoneme","0","None","NA","space","NA","space","None","a","0.01610000617802143","NA","4901.745700044557","NA","16460.904199862853","0.01610000617802143","1197.9012999217957","2","psycho","1024","2","48000","-16","experiment","999","odd","도서","artifactual","NA","79572.49929988757","37683.52129985578","37683.47349995747","NA","32779.63129989803","7804.495600052178","37683.03479999304","NA","78848.04910002276","7944.354200037196","80878.90170002356","80879.08439990133","24407.32629992999","79063.15299984999","NA","79679.3698000256","78834.39760003239","Extended template","0","0.3448005300015211","20","yes","1024"
"0","0","0.017190507302681606","0.017190507302681606","white","yes","psycho","psycho","psycho","0","uniform","0","undefined","0","a","1","0","23","1","1","0","0","0","0","NA","23","0","23","23","0","23","1","23","23","Tue Dec  5 17:44:10 2023","A template containing a practice and an experimental phase","yes","언어학과심리실험_B조_기말과제용심리실험.osexp","E:\2023년도 1학기\언어학과심리실험","no","mono","no","18","no","black","no","no","768","psycho","20","20","0","E:\2023년도 1학기\언어학과심리실험\quickrun.csv","psycho","Lentiform Loewenfeld","3.3.14","no","건물","artifactual","inclusive","0","None","NA","space","NA","space","None","a","0.016200123354792595","NA","4901.745700044557","NA","16460.904199862853","0.016200123354792595","735.8866001013666","2","psycho","1024","2","48000","-16","experiment","999","odd","병원","artifactual","NA","81710.2031998802","37683.52129985578","37683.47349995747","NA","32779.63129989803","7804.495600052178","37683.03479999304","NA","80985.54819985293","7944.354200037196","82554.61089988239","82554.81310002506","24407.32629992999","81200.91010001488","NA","81817.36709992401","80972.05789992586","Extended template","0","0.3610006533563137","21","yes","1024"
"0","0","0.017286394722759724","0.017286394722759724","white","yes","psycho","psycho","psycho","0","uniform","0","undefined","0","a","1","0","24","1","1","0","0","0","0","NA","24","0","24","24","0","24","1","24","24","Tue Dec  5 17:44:10 2023","A template containing a practice and an experimental phase","yes","언어학과심리실험_B조_기말과제용심리실험.osexp","E:\2023년도 1학기\언어학과심리실험","no","mono","no","18","no","black","no","no","768","psycho","21","21","0","E:\2023년도 1학기\언어학과심리실험\quickrun.csv","psycho","Lentiform Loewenfeld","3.3.14","no","성적표","artifactual","same phoneme","0","None","NA","space","NA","space","None","a","0.019300030544400215","NA","4901.745700044557","NA","16460.904199862853","0.019300030544400215","699.0173999220133","2","psycho","1024","2","48000","-16","experiment","999","odd","성냥","artifactual","NA","83390.07059996948","37683.52129985578","37683.47349995747","NA","32779.63129989803","7804.495600052178","37683.03479999304","NA","82666.11479991116","7944.354200037196","84198.85129993781","84199.0493000485","24407.32629992999","82881.37839990668","NA","83498.24370001443","82658.3401998505","Extended template","0","0.3803006839007139","22","yes","1024"
"0","0","0.017208725456958233","0.017208725456958233","white","yes","psycho","psycho","psycho","0","uniform","0","undefined","0","a","1","0","25","1","1","0","0","0","0","NA","25","0","25","25","0","25","1","25","25","Tue Dec  5 17:44:10 2023","A template containing a practice and an experimental phase","yes","언어학과심리실험_B조_기말과제용심리실험.osexp","E:\2023년도 1학기\언어학과심리실험","no","mono","no","18","no","black","no","no","768","psycho","22","22","0","E:\2023년도 1학기\언어학과심리실험\quickrun.csv","psycho","Lentiform Loewenfeld","3.3.14","no","산","natural","similar-environmental","0","None","NA","space","NA","space","None","a","0.015500001609325409","NA","4901.745700044557","NA","16460.904199862853","0.015500001609325409","1144.3677002098411","2","psycho","1024","2","48000","-16","experiment","999","odd","오두막","artifactual","NA","85019.5839998778","37683.52129985578","37683.47349995747","NA","32779.63129989803","7804.495600052178","37683.03479999304","NA","84296.8019999098","7944.354200037196","86270.98819985986","86271.18909987621","24407.32629992999","84512.69289990887","NA","85124.85779984854","84288.08670002036","Extended template","0","0.39580068551003933","23","yes","1024"
"0","0","0.017266701130817335","0.017266701130817335","white","yes","psycho","psycho","psycho","0","uniform","0","undefined","0","a","1","0","26","1","1","0","0","0","0","NA","26","0","26","26","0","26","1","26","26","Tue Dec  5 17:44:10 2023","A template containing a practice and an experimental phase","yes","언어학과심리실험_B조_기말과제용심리실험.osexp","E:\2023년도 1학기\언어학과심리실험","no","mono","no","18","no","black","no","no","768","psycho","23","23","0","E:\2023년도 1학기\언어학과심리실험\quickrun.csv","psycho","Lentiform Loewenfeld","3.3.14","no","교통","artifactual","inclusive","0","None","NA","space","NA","space","None","a","0.018600141629576683","NA","4901.745700044557","NA","16460.904199862853","0.018600141629576683","593.9839000348002","2","psycho","1024","2","48000","-16","experiment","999","odd","자동차","artifactual","NA","87090.96179995686","37683.52129985578","37683.47349995747","NA","32779.63129989803","7804.495600052178","37683.03479999304","NA","86376.23919988982","7944.354200037196","87795.20559986122","87795.43449985795","24407.32629992999","86584.02399998158","NA","87199.39969992265","86367.54169990309","Extended template","0","0.414400827139616","24","yes","1024"
"0","0","0.01720803789794445","0.01720803789794445","white","yes","psycho","psycho","psycho","0","uniform","0","undefined","0","n","1","0","27","1","1","0","0","0","0","NA","27","0","27","27","0","27","1","27","27","Tue Dec  5 17:44:10 2023","A template containing a practice and an experimental phase","yes","언어학과심리실험_B조_기말과제용심리실험.osexp","E:\2023년도 1학기\언어학과심리실험","no","mono","no","18","no","black","no","no","768","psycho","24","24","0","E:\2023년도 1학기\언어학과심리실험\quickrun.csv","psycho","Lentiform Loewenfeld","3.3.14","no","언덕","natural","no-correlation","0","None","NA","space","NA","space","None","n","0.015800120308995247","NA","4901.745700044557","NA","16460.904199862853","0.015800120308995247","675.7082999683917","2","psycho","1024","2","48000","-16","experiment","999","odd","고양이","natural","NA","88614.19599992223","37683.52129985578","37683.47349995747","NA","32779.63129989803","7804.495600052178","37683.03479999304","NA","87898.00589997321","7944.354200037196","89398.96689984016","89399.17159988545","24407.32629992999","88105.24409986101","NA","88721.54850000516","87890.37190005183","Extended template","0","0.43020094744861126","25","yes","1024"
"0","0","0.017207724830278985","0.017207724830278985","white","yes","psycho","psycho","psycho","0","uniform","0","undefined","0","n","1","0","28","1","1","0","0","0","0","NA","28","0","28","28","0","28","1","28","28","Tue Dec  5 17:44:10 2023","A template containing a practice and an experimental phase","yes","언어학과심리실험_B조_기말과제용심리실험.osexp","E:\2023년도 1학기\언어학과심리실험","no","mono","no","18","no","black","no","no","768","psycho","25","25","0","E:\2023년도 1학기\언어학과심리실험\quickrun.csv","psycho","Lentiform Loewenfeld","3.3.14","no","물고기","natural","no-correlation","0","None","NA","space","NA","space","None","n","0.01719989813864231","NA","4901.745700044557","NA","16460.904199862853","0.01719989813864231","709.6323999576271","2","psycho","1024","2","48000","-16","experiment","999","odd","밤하늘","natural","NA","90227.06069983542","37683.52129985578","37683.47349995747","NA","32779.63129989803","7804.495600052178","37683.03479999304","NA","89504.29719989188","7944.354200037196","91046.6744999867","91046.88380006701","24407.32629992999","89720.79989989288","NA","90335.61619999819","89492.16809985228","Extended template","0","0.44740084558725357","26","yes","1024"
"0","0","0.017351876185448083","0.017351876185448083","white","yes","psycho","psycho","psycho","0","uniform","0","undefined","0","a","1","0","29","1","1","0","0","0","0","NA","29","0","29","29","0","29","1","29","29","Tue Dec  5 17:44:10 2023","A template containing a practice and an experimental phase","yes","언어학과심리실험_B조_기말과제용심리실험.osexp","E:\2023년도 1학기\언어학과심리실험","no","mono","no","18","no","black","no","no","768","psycho","26","26","0","E:\2023년도 1학기\언어학과심리실험\quickrun.csv","psycho","Lentiform Loewenfeld","3.3.14","no","가방","artifactual","no-correlation","0","None","NA","space","NA","space","None","a","0.021099811419844627","NA","4901.745700044557","NA","16460.904199862853","0.021099811419844627","571.8556998763233","2","psycho","1024","2","48000","-16","experiment","999","odd","기차","artifactual","NA","91859.0331999585","37683.52129985578","37683.47349995747","NA","32779.63129989803","7804.495600052178","37683.03479999304","NA","91142.23219989799","7944.354200037196","92538.4263000451","92538.67749986239","24407.32629992999","91350.37099989131","NA","91965.42989998125","91129.27859998308","Extended template","0","0.4685006570070982","27","yes","1024"
"0","0","0.01734288109998618","0.01734288109998618","white","yes","psycho","psycho","psycho","0","uniform","0","undefined","0","a","1","0","30","1","1","0","0","0","0","NA","30","0","30","30","0","30","1","30","30","Tue Dec  5 17:44:10 2023","A template containing a practice and an experimental phase","yes","언어학과심리실험_B조_기말과제용심리실험.osexp","E:\2023년도 1학기\언어학과심리실험","no","mono","no","18","no","black","no","no","768","psycho","27","27","0","E:\2023년도 1학기\언어학과심리실험\quickrun.csv","psycho","Lentiform Loewenfeld","3.3.14","no","성냥","artifactual","same phoneme","0","None","NA","space","NA","space","None","a","0.0171000137925148","NA","4901.745700044557","NA","16460.904199862853","0.0171000137925148","933.5926999337971","2","psycho","1024","2","48000","-16","experiment","999","odd","성적표","artifactual","NA","93363.88930003159","37683.52129985578","37683.47349995747","NA","32779.63129989803","7804.495600052178","37683.03479999304","NA","92640.34879999235","7944.354200037196","94406.7192999646","94406.95019997656","24407.32629992999","92856.00319993682","NA","93471.58419992775","92626.24290003441","Extended template","0","0.485600670799613","28","yes","1024"
"0","0","0.017265540322866934","0.017265540322866934","white","yes","psycho","psycho","psycho","0","uniform","0","undefined","0","n","1","0","31","1","1","0","0","0","0","NA","31","0","31","31","0","31","1","31","31","Tue Dec  5 17:44:10 2023","A template containing a practice and an experimental phase","yes","언어학과심리실험_B조_기말과제용심리실험.osexp","E:\2023년도 1학기\언어학과심리실험","no","mono","no","18","no","black","no","no","768","psycho","28","28","0","E:\2023년도 1학기\언어학과심리실험\quickrun.csv","psycho","Lentiform Loewenfeld","3.3.14","no","소방서","artifactual","same phoneme","0","None","NA","space","NA","space","None","n","0.015099998563528061","NA","4901.745700044557","NA","16460.904199862853","0.015099998563528061","956.666300073266","2","psycho","1024","2","48000","-16","experiment","999","odd","소나무","natural","NA","95234.93400006555","37683.52129985578","37683.47349995747","NA","32779.63129989803","7804.495600052178","37683.03479999304","NA","94512.85859989002","7944.354200037196","96302.71499999799","96302.93560004793","24407.32629992999","94727.65129990876","NA","95344.59519991651","94496.47290003486","Extended template","0","0.5007006693631411","29","yes","1024"
"0","0","0.017213355749845505","0.017213355749845505","white","yes","psycho","psycho","psycho","0","uniform","0","undefined","0","a","1","0","32","1","1","0","0","0","0","NA","32","0","32","32","0","32","1","32","32","Tue Dec  5 17:44:10 2023","A template containing a practice and an experimental phase","yes","언어학과심리실험_B조_기말과제용심리실험.osexp","E:\2023년도 1학기\언어학과심리실험","no","mono","no","18","no","black","no","no","768","psycho","29","29","0","E:\2023년도 1학기\언어학과심리실험\quickrun.csv","psycho","Lentiform Loewenfeld","3.3.14","no","계곡","natural","no-correlation","0","None","NA","space","NA","space","None","a","0.015700003132224083","NA","4901.745700044557","NA","16460.904199862853","0.015700003132224083","704.9403002019972","2","psycho","1024","2","48000","-16","experiment","999","odd","화장실","artifactual","NA","97123.17400006577","37683.52129985578","37683.47349995747","NA","32779.63129989803","7804.495600052178","37683.03479999304","NA","96400.26659984142","7944.354200037196","97934.74289984442","97934.96800004505","24407.32629992999","96616.75809998997","NA","97228.30099985003","96389.99489997514","Extended template","0","0.5164006724953651","30","yes","1024"
"0","0","0.01727421617796344","0.01727421617796344","white","yes","psycho","psycho","psycho","0","uniform","0","undefined","0","a","1","0","33","1","1","0","0","0","0","NA","33","0","33","33","0","33","1","33","33","Tue Dec  5 17:44:10 2023","A template containing a practice and an experimental phase","yes","언어학과심리실험_B조_기말과제용심리실험.osexp","E:\2023년도 1학기\언어학과심리실험","no","mono","no","18","no","black","no","no","768","psycho","30","30","0","E:\2023년도 1학기\언어학과심리실험\quickrun.csv","psycho","Lentiform Loewenfeld","3.3.14","no","바다","natural","same phoneme","0","None","NA","space","NA","space","None","a","0.01910002902150154","NA","4901.745700044557","NA","16460.904199862853","0.01910002902150154","634.6975001506507","2","psycho","1024","2","48000","-16","experiment","999","odd","바구니","artifactual","NA","98754.88150003366","37683.52129985578","37683.47349995747","NA","32779.63129989803","7804.495600052178","37683.03479999304","NA","98021.4149998501","7944.354200037196","99499.48500003666","99499.74010000005","24407.32629992999","98245.98539993167","NA","98862.55449987948","98013.95639986731","Extended template","0","0.5355007015168667","31","yes","1024"
"0","0","0.017265643691644073","0.017265643691644073","white","yes","psycho","psycho","psycho","0","uniform","0","undefined","0","n","0","0","34","1","1","0","0","0","0","NA","34","0","34","34","0","34","1","34","34","Tue Dec  5 17:44:10 2023","A template containing a practice and an experimental phase","yes","언어학과심리실험_B조_기말과제용심리실험.osexp","E:\2023년도 1학기\언어학과심리실험","no","mono","no","18","no","black","no","no","768","psycho","31","31","0","E:\2023년도 1학기\언어학과심리실험\quickrun.csv","psycho","Lentiform Loewenfeld","3.3.14","no","달","artifactual","same phoneme","0","None","NA","space","NA","space","None","a","0.016999896615743637","NA","4901.745700044557","NA","16460.904199862853","0.016999896615743637","513.9556000940502","2","psycho","1024","2","48000","-16","experiment","999","odd","달력","natural","NA","100309.94099983945","37683.52129985578","37683.47349995747","NA","32779.63129989803","7804.495600052178","37683.03479999304","NA","99594.68299988657","7944.354200037196","100934.93580003269","100935.1889998652","24407.32629992999","99801.73780000769","NA","100419.29679992609","99584.94969992898","Extended template","0","0.5525005981326103","32","yes","1024"
"0","0","0.0174939561861031","0.0174939561861031","white","yes","psycho","psycho","psycho","0","uniform","0","undefined","0","x","1","0","35","1","1","0","0","0","0","NA","35","0","35","35","0","35","1","35","35","Tue Dec  5 17:44:10 2023","A template containing a practice and an experimental phase","yes","언어학과심리실험_B조_기말과제용심리실험.osexp","E:\2023년도 1학기\언어학과심리실험","no","mono","no","18","no","black","no","no","768","psycho","32","32","0","E:\2023년도 1학기\언어학과심리실험\quickrun.csv","psycho","Lentiform Loewenfeld","3.3.14","no","냉장고","artifactual","non-word","0","None","NA","space","NA","space","None","x","0.024799956008791924","NA","4901.745700044557","NA","16460.904199862853","0.024799956008791924","1660.9431998804212","2","psycho","1024","2","48000","-16","experiment","999","odd","로방삭","non-word","NA","101740.641299868","37683.52129985578","37683.47349995747","NA","32779.63129989803","7804.495600052178","37683.03479999304","NA","101024.76780000143","7944.354200037196","103510.38219989277","103510.6629000511","24407.32629992999","101231.13239998929","NA","101848.398800008","101017.07779988647","Extended template","0","0.5773005541414022","33","yes","1024"
"0","0","0.017464722451918265","0.017464722451918265","white","yes","psycho","psycho","psycho","0","uniform","0","undefined","0","a","1","0","36","1","1","0","0","0","0","NA","36","0","36","36","0","36","1","36","36","Tue Dec  5 17:44:10 2023","A template containing a practice and an experimental phase","yes","언어학과심리실험_B조_기말과제용심리실험.osexp","E:\2023년도 1학기\언어학과심리실험","no","mono","no","18","no","black","no","no","768","psycho","33","33","0","E:\2023년도 1학기\언어학과심리실험\quickrun.csv","psycho","Lentiform Loewenfeld","3.3.14","no","호수","natural","no-correlation","0","None","NA","space","NA","space","None","a","0.01650000922381878","NA","4901.745700044557","NA","16460.904199862853","0.01650000922381878","822.2544998861849","2","psycho","1024","2","48000","-16","experiment","999","odd","화장실","artifactual","NA","104336.16549987346","37683.52129985578","37683.47349995747","NA","32779.63129989803","7804.495600052178","37683.03479999304","NA","103612.4871999491","7944.354200037196","105267.50990003347","105267.75650004856","24407.32629992999","103828.34720006213","NA","104443.68060003035","103599.33350002393","Extended template","0","0.593800563365221","34","yes","1024"
"0","0","0.017414301899927005","0.017414301899927005","white","yes","psycho","psycho","psycho","0","uniform","0","undefined","0","n","1","0","37","1","1","0","0","0","0","NA","37","0","37","37","0","37","1","37","37","Tue Dec  5 17:44:10 2023","A template containing a practice and an experimental phase","yes","언어학과심리실험_B조_기말과제용심리실험.osexp","E:\2023년도 1학기\언어학과심리실험","no","mono","no","18","no","black","no","no","768","psycho","34","34","0","E:\2023년도 1학기\언어학과심리실험\quickrun.csv","psycho","Lentiform Loewenfeld","3.3.14","no","악어","natural","similar-environmental","0","None","NA","space","NA","space","None","n","0.015700003132224083","NA","4901.745700044557","NA","16460.904199862853","0.015700003132224083","950.2127000596374","2","psycho","1024","2","48000","-16","experiment","999","odd","늪","natural","NA","106107.7938999515","37683.52129985578","37683.47349995747","NA","32779.63129989803","7804.495600052178","37683.03479999304","NA","105385.05239994265","7944.354200037196","107166.57379991375","107166.81930003688","24407.32629992999","105600.90960003436","NA","106214.97079986148","105370.69509993307","Extended template","0","0.6095005664974451","35","yes","1024"
"0","0","0.017394460479004517","0.017394460479004517","white","yes","psycho","psycho","psycho","0","uniform","0","undefined","0","n","1","0","38","1","1","0","0","0","0","NA","38","0","38","38","0","38","1","38","38","Tue Dec  5 17:44:10 2023","A template containing a practice and an experimental phase","yes","언어학과심리실험_B조_기말과제용심리실험.osexp","E:\2023년도 1학기\언어학과심리실험","no","mono","no","18","no","black","no","no","768","psycho","35","35","0","E:\2023년도 1학기\언어학과심리실험\quickrun.csv","psycho","Lentiform Loewenfeld","3.3.14","no","다리","artifactual","similar-environmental","0","None","NA","space","NA","space","None","n","0.016700010746717453","NA","4901.745700044557","NA","16460.904199862853","0.016700010746717453","883.9719998650253","2","psycho","1024","2","48000","-16","experiment","999","odd","강","natural","NA","107995.71230006404","37683.52129985578","37683.47349995747","NA","32779.63129989803","7804.495600052178","37683.03479999304","NA","107272.70169998519","7944.354200037196","108986.73529992811","108986.98819987476","24407.32629992999","107488.99229988456","NA","108101.22549999505","107260.2180999238","Extended template","0","0.6262005772441626","36","yes","1024"
"0","0","0.01736758025111379","0.01736758025111379","white","yes","psycho","psycho","psycho","0","uniform","0","undefined","0","a","0","0","39","1","1","0","0","0","0","NA","39","0","39","39","0","39","1","39","39","Tue Dec  5 17:44:10 2023","A template containing a practice and an experimental phase","yes","언어학과심리실험_B조_기말과제용심리실험.osexp","E:\2023년도 1학기\언어학과심리실험","no","mono","no","18","no","black","no","no","768","psycho","36","36","0","E:\2023년도 1학기\언어학과심리실험\quickrun.csv","psycho","Lentiform Loewenfeld","3.3.14","no","국가","artifactual","inclusive","0","None","NA","space","NA","space","None","x","0.016399892047047615","NA","4901.745700044557","NA","16460.904199862853","0.016399892047047615","3045.638300012797","2","psycho","1024","2","48000","-16","experiment","999","odd","대한민국","artifactual","NA","109793.60489989631","37683.52129985578","37683.47349995747","NA","32779.63129989803","7804.495600052178","37683.03479999304","NA","109077.01350003481","7944.354200037196","112947.69169995561","112947.95849989168","24407.32629992999","109284.81279988773","NA","109899.77859985083","109067.81969987787","Extended template","0","0.6426004692912102","37","yes","1024"
"0","0","0.017360539028519077","0.017360539028519077","white","yes","psycho","psycho","psycho","0","uniform","0","undefined","0","a","1","0","40","1","1","0","0","0","0","NA","40","0","40","40","0","40","1","40","40","Tue Dec  5 17:44:10 2023","A template containing a practice and an experimental phase","yes","언어학과심리실험_B조_기말과제용심리실험.osexp","E:\2023년도 1학기\언어학과심리실험","no","mono","no","18","no","black","no","no","768","psycho","37","37","0","E:\2023년도 1학기\언어학과심리실험\quickrun.csv","psycho","Lentiform Loewenfeld","3.3.14","no","바다","natural","same phoneme","0","None","NA","space","NA","space","None","a","0.0171000137925148","NA","4901.745700044557","NA","16460.904199862853","0.0171000137925148","1255.6922999210656","2","psycho","1024","2","48000","-16","experiment","999","odd","바닥","artifactual","NA","113761.93659985438","37683.52129985578","37683.47349995747","NA","32779.63129989803","7804.495600052178","37683.03479999304","NA","113036.72540001571","7944.354200037196","115125.97139994614","115126.25700002536","24407.32629992999","113252.59489985183","NA","113869.45479991846","113029.36359983869","Extended template","0","0.659700483083725","38","yes","1024"
"0","0","0.017328217673378114","0.017328217673378114","white","yes","psycho","psycho","psycho","0","uniform","0","undefined","0","a","1","0","41","1","1","0","0","0","0","NA","41","0","41","41","0","41","1","41","41","Tue Dec  5 17:44:10 2023","A template containing a practice and an experimental phase","yes","언어학과심리실험_B조_기말과제용심리실험.osexp","E:\2023년도 1학기\언어학과심리실험","no","mono","no","18","no","black","no","no","768","psycho","38","38","0","E:\2023년도 1학기\언어학과심리실험\quickrun.csv","psycho","Lentiform Loewenfeld","3.3.14","no","향수","artifactual","no-correlation","0","None","NA","space","NA","space","None","a","0.01610000617802143","NA","4901.745700044557","NA","16460.904199862853","0.01610000617802143","1075.1199000515044","2","psycho","1024","2","48000","-16","experiment","999","odd","선풍기","artifactual","NA","115948.09830002487","37683.52129985578","37683.47349995747","NA","32779.63129989803","7804.495600052178","37683.03479999304","NA","115224.70779996365","7944.354200037196","117134.55950003117","117134.82649996877","24407.32629992999","115441.15990004502","NA","116058.15279996023","115210.9511999879","Extended template","0","0.6758004892617464","39","yes","1024"
"0","0","0.01727251219563186","0.01727251219563186","white","yes","psycho","psycho","psycho","0","uniform","0","undefined","0","n","1","0","42","1","1","0","0","0","0","NA","42","0","42","42","0","42","1","42","42","Tue Dec  5 17:44:10 2023","A template containing a practice and an experimental phase","yes","언어학과심리실험_B조_기말과제용심리실험.osexp","E:\2023년도 1학기\언어학과심리실험","no","mono","no","18","no","black","no","no","768","psycho","39","39","0","E:\2023년도 1학기\언어학과심리실험\quickrun.csv","psycho","Lentiform Loewenfeld","3.3.14","no","모래","natural","similar-environmental","0","None","NA","space","NA","space","None","n","0.015099998563528061","NA","4901.745700044557","NA","16460.904199862853","0.015099998563528061","982.9746999312192","2","psycho","1024","2","48000","-16","experiment","999","odd","자갈","natural","NA","117961.19019994512","37683.52129985578","37683.47349995747","NA","32779.63129989803","7804.495600052178","37683.03479999304","NA","117229.38799997792","7944.354200037196","119050.93829985708","119051.20510002598","24407.32629992999","117454.02759988792","NA","118066.25330005772","117216.57389984466","Extended template","0","0.6909004878252745","40","yes","1024"
"0","0","0.017248792573809624","0.017248792573809624","white","yes","psycho","psycho","psycho","0","uniform","0","undefined","0","a","1","0","43","1","1","0","0","0","0","NA","43","0","43","43","0","43","1","43","43","Tue Dec  5 17:44:10 2023","A template containing a practice and an experimental phase","yes","언어학과심리실험_B조_기말과제용심리실험.osexp","E:\2023년도 1학기\언어학과심리실험","no","mono","no","18","no","black","no","no","768","psycho","40","40","0","E:\2023년도 1학기\언어학과심리실험\quickrun.csv","psycho","Lentiform Loewenfeld","3.3.14","no","눈","natural","similar-environmental","0","None","NA","space","NA","space","None","a","0.016300007700920105","NA","4901.745700044557","NA","16460.904199862853","0.016300007700920105","800.9842000901699","2","psycho","1024","2","48000","-16","experiment","999","odd","스키","artifactual","NA","119882.78059987351","37683.52129985578","37683.47349995747","NA","32779.63129989803","7804.495600052178","37683.03479999304","NA","119159.94649985805","7944.354200037196","120790.8960999921","120791.1745000165","24407.32629992999","119375.72859995998","NA","119988.16769989207","119144.61489999667","Extended template","0","0.7072004955261946","41","yes","1024"
"0","0","0.01727143812569834","0.01727143812569834","white","yes","psycho","psycho","psycho","0","uniform","0","undefined","0","n","1","0","44","1","1","0","0","0","0","NA","44","0","44","44","0","44","1","44","44","Tue Dec  5 17:44:10 2023","A template containing a practice and an experimental phase","yes","언어학과심리실험_B조_기말과제용심리실험.osexp","E:\2023년도 1학기\언어학과심리실험","no","mono","no","18","no","black","no","no","768","psycho","41","41","0","E:\2023년도 1학기\언어학과심리실험\quickrun.csv","psycho","Lentiform Loewenfeld","3.3.14","no","스노우보드","artifactual","no-correlation","0","None","NA","space","NA","space","None","n","0.01819990575313568","NA","4901.745700044557","NA","16460.904199862853","0.01819990575313568","1935.6778000947088","2","psycho","1024","2","48000","-16","experiment","999","odd","소나무","natural","NA","121613.48279984668","37683.52129985578","37683.47349995747","NA","32779.63129989803","7804.495600052178","37683.03479999304","NA","120890.4981999658","7944.354200037196","123658.16890005954","123658.47339993343","24407.32629992999","121101.56710003503","NA","121721.53149987571","120879.12679999135","Extended template","0","0.7254004012793303","42","yes","1024"
"0","0","0.01738605977490891","0.01738605977490891","white","yes","psycho","psycho","psycho","0","uniform","0","undefined","0","a","1","0","45","1","1","0","0","0","0","NA","45","0","45","45","0","45","1","45","45","Tue Dec  5 17:44:10 2023","A template containing a practice and an experimental phase","yes","언어학과심리실험_B조_기말과제용심리실험.osexp","E:\2023년도 1학기\언어학과심리실험","no","mono","no","18","no","black","no","no","768","psycho","42","42","0","E:\2023년도 1학기\언어학과심리실험\quickrun.csv","psycho","Lentiform Loewenfeld","3.3.14","no","모니터","artifactual","same phoneme","0","None","NA","space","NA","space","None","a","0.022200169041752815","NA","4901.745700044557","NA","16460.904199862853","0.022200169041752815","970.0201000086963","2","psycho","1024","2","48000","-16","experiment","999","odd","모터","artifactual","NA","124483.32619993016","37683.52129985578","37683.47349995747","NA","32779.63129989803","7804.495600052178","37683.03479999304","NA","123760.68349997513","7944.354200037196","125562.89229984395","125563.23440000415","24407.32629992999","123975.63089989126","NA","124591.21969994158","123746.98429997079","Extended template","0","0.7476005703210831","43","yes","1024"
"0","0","0.017361376773227345","0.017361376773227345","white","yes","psycho","psycho","psycho","0","uniform","0","undefined","0","n","1","0","46","1","1","0","0","0","0","NA","46","0","46","46","0","46","1","46","46","Tue Dec  5 17:44:10 2023","A template containing a practice and an experimental phase","yes","언어학과심리실험_B조_기말과제용심리실험.osexp","E:\2023년도 1학기\언어학과심리실험","no","mono","no","18","no","black","no","no","768","psycho","43","43","0","E:\2023년도 1학기\언어학과심리실험\quickrun.csv","psycho","Lentiform Loewenfeld","3.3.14","no","수영","artifactual","similar-environmental","0","None","NA","space","NA","space","None","n","0.016300007700920105","NA","4901.745700044557","NA","16460.904199862853","0.016300007700920105","948.6905999947339","2","psycho","1024","2","48000","-16","experiment","999","odd","바다","natural","NA","126388.75459996052","37683.52129985578","37683.47349995747","NA","32779.63129989803","7804.495600052178","37683.03479999304","NA","125665.75539996848","7944.354200037196","127447.02510000207","127447.31029984541","24407.32629992999","125880.10920002125","NA","126496.56010000035","125652.99799991772","Extended template","0","0.7639005780220032","44","yes","1024"
"0","0","0.017326682185133297","0.017326682185133297","white","yes","psycho","psycho","psycho","0","uniform","0","undefined","0","a","1","0","47","1","1","0","0","0","0","NA","47","0","47","47","0","47","1","47","47","Tue Dec  5 17:44:10 2023","A template containing a practice and an experimental phase","yes","언어학과심리실험_B조_기말과제용심리실험.osexp","E:\2023년도 1학기\언어학과심리실험","no","mono","no","18","no","black","no","no","768","psycho","44","44","0","E:\2023년도 1학기\언어학과심리실험\quickrun.csv","psycho","Lentiform Loewenfeld","3.3.14","no","바다","natural","similar-environmental","0","None","NA","space","NA","space","None","a","0.015800120308995247","NA","4901.745700044557","NA","16460.904199862853","0.015800120308995247","848.2619000133127","2","psycho","1024","2","48000","-16","experiment","999","odd","배","artifactual","NA","128285.2445000317","37683.52129985578","37683.47349995747","NA","32779.63129989803","7804.495600052178","37683.03479999304","NA","127561.63759995252","7944.354200037196","129242.73819988593","129243.0272998754","24407.32629992999","127778.42359989882","NA","128392.93009997346","127545.85259989835","Extended template","0","0.7797006983309984","45","yes","1024"
"0","0","0.017280447418275086","0.017280447418275086","white","yes","psycho","psycho","psycho","0","uniform","0","undefined","0","n","1","0","48","1","1","0","0","0","0","NA","48","0","48","48","0","48","1","48","48","Tue Dec  5 17:44:10 2023","A template containing a practice and an experimental phase","yes","언어학과심리실험_B조_기말과제용심리실험.osexp","E:\2023년도 1학기\언어학과심리실험","no","mono","no","18","no","black","no","no","768","psycho","45","45","0","E:\2023년도 1학기\언어학과심리실험\quickrun.csv","psycho","Lentiform Loewenfeld","3.3.14","no","가을","natural","similar-environmental","0","None","NA","space","NA","space","None","n","0.015199882909655571","NA","4901.745700044557","NA","16460.904199862853","0.015199882909655571","940.3291000053287","2","psycho","1024","2","48000","-16","experiment","999","odd","낙엽","natural","NA","130073.57289991342","37683.52129985578","37683.47349995747","NA","32779.63129989803","7804.495600052178","37683.03479999304","NA","129341.67949995026","7944.354200037196","131122.74889997207","131123.0464000255","24407.32629992999","129561.87189999036","NA","130180.90180004947","129329.02029994875","Extended template","0","0.794900581240654","46","yes","1024"
"0","0","0.017261712197610673","0.017261712197610673","white","yes","psycho","psycho","psycho","0","uniform","0","undefined","0","a","1","0","49","1","1","0","0","0","0","NA","49","0","49","49","0","49","1","49","49","Tue Dec  5 17:44:10 2023","A template containing a practice and an experimental phase","yes","언어학과심리실험_B조_기말과제용심리실험.osexp","E:\2023년도 1학기\언어학과심리실험","no","mono","no","18","no","black","no","no","768","psycho","46","46","0","E:\2023년도 1학기\언어학과심리실험\quickrun.csv","psycho","Lentiform Loewenfeld","3.3.14","no","시","artifactual","similar-environmental","0","None","NA","space","NA","space","None","a","0.016399892047047615","NA","4901.745700044557","NA","16460.904199862853","0.016399892047047615","1115.2474998962134","2","psycho","1024","2","48000","-16","experiment","999","odd","소설","artifactual","NA","131945.9782000631","37683.52129985578","37683.47349995747","NA","32779.63129989803","7804.495600052178","37683.03479999304","NA","131212.75619999506","7944.354200037196","133170.85029999726","133171.15329997614","24407.32629992999","131429.43460005336","NA","132053.97629993968","131205.61379985884","Extended template","0","0.8113004732877016","47","yes","1024"
"0","0","0.017239595763385296","0.017239595763385296","white","yes","psycho","psycho","psycho","0","uniform","0","undefined","0","n","1","0","50","1","1","0","0","0","0","NA","50","0","50","50","0","50","1","50","50","Tue Dec  5 17:44:10 2023","A template containing a practice and an experimental phase","yes","언어학과심리실험_B조_기말과제용심리실험.osexp","E:\2023년도 1학기\언어학과심리실험","no","mono","no","18","no","black","no","no","768","psycho","47","47","0","E:\2023년도 1학기\언어학과심리실험\quickrun.csv","psycho","Lentiform Loewenfeld","3.3.14","no","태양계","natural","inclusive","0","None","NA","space","NA","space","None","n","0.016200123354792595","NA","4901.745700044557","NA","16460.904199862853","0.016200123354792595","5642.070200061426","2","psycho","1024","2","48000","-16","experiment","999","odd","목성","natural","NA","133974.32919987477","37683.52129985578","37683.47349995747","NA","32779.63129989803","7804.495600052178","37683.03479999304","NA","133259.0644999873","7944.354200037196","139727.8262998443","139728.13940001652","24407.32629992999","133467.1098999679","NA","134083.1734999083","133253.0481000431","Extended template","0","0.8275005966424942","48","yes","1024"
"0","0","0.01723674715173488","0.01723674715173488","white","yes","psycho","psycho","psycho","0","uniform","0","undefined","0","n","1","0","51","1","1","0","0","0","0","NA","51","0","51","51","0","51","1","51","51","Tue Dec  5 17:44:10 2023","A template containing a practice and an experimental phase","yes","언어학과심리실험_B조_기말과제용심리실험.osexp","E:\2023년도 1학기\언어학과심리실험","no","mono","no","18","no","black","no","no","768","psycho","48","48","0","E:\2023년도 1학기\언어학과심리실험\quickrun.csv","psycho","Lentiform Loewenfeld","3.3.14","no","풍차","artifactual","no-correlation","0","None","NA","space","NA","space","None","n","0.0171000137925148","NA","4901.745700044557","NA","16460.904199862853","0.0171000137925148","841.1866000387818","2","psycho","1024","2","48000","-16","experiment","999","odd","흙","natural","NA","140555.1231999416","37683.52129985578","37683.47349995747","NA","32779.63129989803","7804.495600052178","37683.03479999304","NA","139831.74339984544","7944.354200037196","141522.76879991405","141523.09709996916","24407.32629992999","140046.69069987722","NA","140679.9588999711","139823.2634998858","Extended template","0","0.844600610435009","49","yes","1024"
"0","0","0.01721401233226061","0.01721401233226061","white","yes","psycho","psycho","psycho","0","uniform","0","undefined","0","n","1","0","52","1","1","0","0","0","0","NA","52","0","52","52","0","52","1","52","52","Tue Dec  5 17:44:10 2023","A template containing a practice and an experimental phase","yes","언어학과심리실험_B조_기말과제용심리실험.osexp","E:\2023년도 1학기\언어학과심리실험","no","mono","no","18","no","black","no","no","768","psycho","49","49","0","E:\2023년도 1학기\언어학과심리실험\quickrun.csv","psycho","Lentiform Loewenfeld","3.3.14","no","불","natural","no-correlation","0","None","NA","space","NA","space","None","n","0.01610000617802143","NA","4901.745700044557","NA","16460.904199862853","0.01610000617802143","777.5375999044627","2","psycho","1024","2","48000","-16","experiment","999","odd","물고기","natural","NA","142351.69979999773","37683.52129985578","37683.47349995747","NA","32779.63129989803","7804.495600052178","37683.03479999304","NA","141629.33390005492","7944.354200037196","143239.6025999915","143239.92229998112","24407.32629992999","141844.54489988275","NA","142459.69170005992","141615.10919989087","Extended template","0","0.8607006166130304","50","yes","1024"
"0","0","0.01718824747584614","0.01718824747584614","white","yes","psycho","psycho","psycho","0","uniform","0","undefined","0","n","1","0","53","1","1","0","0","0","0","NA","53","0","53","53","0","53","1","53","53","Tue Dec  5 17:44:10 2023","A template containing a practice and an experimental phase","yes","언어학과심리실험_B조_기말과제용심리실험.osexp","E:\2023년도 1학기\언어학과심리실험","no","mono","no","18","no","black","no","no","768","psycho","50","50","0","E:\2023년도 1학기\언어학과심리실험\quickrun.csv","psycho","Lentiform Loewenfeld","3.3.14","no","물고기","natural","inclusive","0","None","NA","space","NA","space","None","n","0.015900004655122757","NA","4901.745700044557","NA","16460.904199862853","0.015900004655122757","785.1937999948859","2","psycho","1024","2","48000","-16","experiment","999","odd","연어","natural","NA","144048.63570001908","37683.52129985578","37683.47349995747","NA","32779.63129989803","7804.495600052178","37683.03479999304","NA","143333.4041000344","7944.354200037196","144942.9581000004","144943.27389984392","24407.32629992999","143540.8886000514","NA","144156.02810005657","143323.75580002554","Extended template","0","0.8766006212681532","51","yes","1024"
"0","0","0.017151935026049614","0.017151935026049614","white","yes","psycho","psycho","psycho","0","uniform","0","undefined","0","n","1","0","54","1","1","0","0","0","0","NA","54","0","54","54","0","54","1","54","54","Tue Dec  5 17:44:10 2023","A template containing a practice and an experimental phase","yes","언어학과심리실험_B조_기말과제용심리실험.osexp","E:\2023년도 1학기\언어학과심리실험","no","mono","no","18","no","black","no","no","768","psycho","51","51","0","E:\2023년도 1학기\언어학과심리실험\quickrun.csv","psycho","Lentiform Loewenfeld","3.3.14","no","곡물","natural","inclusive","0","None","NA","space","NA","space","None","n","0.015300000086426735","NA","4901.745700044557","NA","16460.904199862853","0.015300000086426735","1095.0042000040412","2","psycho","1024","2","48000","-16","experiment","999","odd","밀","natural","NA","145746.51149986312","37683.52129985578","37683.47349995747","NA","32779.63129989803","7804.495600052178","37683.03479999304","NA","145029.8385999631","7944.354200037196","146950.5415998865","146950.85999998264","24407.32629992999","145236.8244000245","NA","145854.14059995674","145021.41950000077","Extended template","0","0.8919006213545799","52","yes","1024"
"0","0","0.017158502607413056","0.017158502607413056","white","yes","psycho","psycho","psycho","0","uniform","0","undefined","0","n","1","0","55","1","1","0","0","0","0","NA","55","0","55","55","0","55","1","55","55","Tue Dec  5 17:44:10 2023","A template containing a practice and an experimental phase","yes","언어학과심리실험_B조_기말과제용심리실험.osexp","E:\2023년도 1학기\언어학과심리실험","no","mono","no","18","no","black","no","no","768","psycho","52","52","0","E:\2023년도 1학기\언어학과심리실험\quickrun.csv","psycho","Lentiform Loewenfeld","3.3.14","no","구두","artifactual","same phoneme","0","None","NA","space","NA","space","None","n","0.01750001683831215","NA","4901.745700044557","NA","16460.904199862853","0.01750001683831215","661.9496000930667","2","psycho","1024","2","48000","-16","experiment","999","odd","구름","natural","NA","147751.69139984064","37683.52129985578","37683.47349995747","NA","32779.63129989803","7804.495600052178","37683.03479999304","NA","147034.66869983822","7944.354200037196","148530.64180002548","148530.97449988127","24407.32629992999","147240.754700033","NA","147867.33489995822","147029.04369984753","Extended template","0","0.9094006381928921","53","yes","1024"
"0","0","0.01714075484347564","0.01714075484347564","white","yes","psycho","psycho","psycho","0","uniform","0","undefined","0","a","1","0","56","1","1","0","0","0","0","NA","56","0","56","56","0","56","1","56","56","Tue Dec  5 17:44:10 2023","A template containing a practice and an experimental phase","yes","언어학과심리실험_B조_기말과제용심리실험.osexp","E:\2023년도 1학기\언어학과심리실험","no","mono","no","18","no","black","no","no","768","psycho","53","53","0","E:\2023년도 1학기\언어학과심리실험\quickrun.csv","psycho","Lentiform Loewenfeld","3.3.14","no","영화","artifactual","similar-environmental","0","None","NA","space","NA","space","None","a","0.016200123354792595","NA","4901.745700044557","NA","16460.904199862853","0.016200123354792595","1649.9391999095678","2","psycho","1024","2","48000","-16","experiment","999","odd","드라마","artifactual","NA","149339.51169997454","37683.52129985578","37683.47349995747","NA","32779.63129989803","7804.495600052178","37683.03479999304","NA","148624.20969991945","7944.354200037196","151099.42739992402","151099.77560001425","24407.32629992999","148831.53619989753","NA","149447.30670005083","148614.91589993238","Extended template","0","0.9256007615476847","54","yes","1024"
"0","0","0.017140014097094536","0.017140014097094536","white","yes","psycho","psycho","psycho","0","uniform","0","undefined","0","n","1","0","57","1","1","0","0","0","0","NA","57","0","57","57","0","57","1","57","57","Tue Dec  5 17:44:10 2023","A template containing a practice and an experimental phase","yes","언어학과심리실험_B조_기말과제용심리실험.osexp","E:\2023년도 1학기\언어학과심리실험","no","mono","no","18","no","black","no","no","768","psycho","54","54","0","E:\2023년도 1학기\언어학과심리실험\quickrun.csv","psycho","Lentiform Loewenfeld","3.3.14","no","바닥","artifactual","same phoneme","0","None","NA","space","NA","space","None","n","0.0171000137925148","NA","4901.745700044557","NA","16460.904199862853","0.0171000137925148","659.6554999705404","2","psycho","1024","2","48000","-16","experiment","999","odd","바다","natural","NA","151909.0388000477","37683.52129985578","37683.47349995747","NA","32779.63129989803","7804.495600052178","37683.03479999304","NA","151193.88259993866","7944.354200037196","152678.94169990905","152679.30079996586","24407.32629992999","151401.96050005034","NA","152017.50499987975","151182.24609992467","Extended template","0","0.9427007753401995","55","yes","1024"
"0","0","0.01713929564825126","0.01713929564825126","white","yes","psycho","psycho","psycho","0","uniform","0","undefined","0","n","1","0","58","1","1","0","0","0","0","NA","58","0","58","58","0","58","1","58","58","Tue Dec  5 17:44:10 2023","A template containing a practice and an experimental phase","yes","언어학과심리실험_B조_기말과제용심리실험.osexp","E:\2023년도 1학기\언어학과심리실험","no","mono","no","18","no","black","no","no","768","psycho","55","55","0","E:\2023년도 1학기\언어학과심리실험\quickrun.csv","psycho","Lentiform Loewenfeld","3.3.14","no","항구","artifactual","similar-environmental","0","None","NA","space","NA","space","None","n","0.017099780961871147","NA","4901.745700044557","NA","16460.904199862853","0.017099780961871147","466.5355000179261","2","psycho","1024","2","48000","-16","experiment","999","odd","바다","natural","NA","153498.607999878","37683.52129985578","37683.47349995747","NA","32779.63129989803","7804.495600052178","37683.03479999304","NA","152776.1518000625","7944.354200037196","154074.70760005526","154075.04560006782","24407.32629992999","152990.8018000424","NA","153606.6476998385","152761.71349990182","Extended template","0","0.9598005563020706","56","yes","1024"
"0","0","0.017164920440368485","0.017164920440368485","white","yes","psycho","psycho","psycho","0","uniform","0","undefined","0","a","1","0","59","1","1","0","0","0","0","NA","59","0","59","59","0","59","1","59","59","Tue Dec  5 17:44:10 2023","A template containing a practice and an experimental phase","yes","언어학과심리실험_B조_기말과제용심리실험.osexp","E:\2023년도 1학기\언어학과심리실험","no","mono","no","18","no","black","no","no","768","psycho","56","56","0","E:\2023년도 1학기\언어학과심리실험\quickrun.csv","psycho","Lentiform Loewenfeld","3.3.14","no","프린터","artifactual","similar-environmental","0","None","NA","space","NA","space","None","a","0.01859990879893303","NA","4901.745700044557","NA","16460.904199862853","0.01859990879893303","683.6711000651121","2","psycho","1024","2","48000","-16","experiment","999","odd","종이","artifactual","NA","154904.17309990153","37683.52129985578","37683.47349995747","NA","32779.63129989803","7804.495600052178","37683.03479999304","NA","154180.38180004805","7944.354200037196","155694.6648999583","155695.02129987814","24407.32629992999","154397.05309993587","NA","155009.5601999201","154170.2401000075","Extended template","0","0.9784004651010036","57","yes","1024"
"0","0","0.017131044497263843","0.017131044497263843","white","yes","psycho","psycho","psycho","0","uniform","0","undefined","0","a","1","0","60","1","1","0","0","0","0","NA","60","0","60","60","0","60","1","60","60","Tue Dec  5 17:44:10 2023","A template containing a practice and an experimental phase","yes","언어학과심리실험_B조_기말과제용심리실험.osexp","E:\2023년도 1학기\언어학과심리실험","no","mono","no","18","no","black","no","no","768","psycho","57","57","0","E:\2023년도 1학기\언어학과심리실험\quickrun.csv","psycho","Lentiform Loewenfeld","3.3.14","no","화분","artifactual","no-correlation","0","None","NA","space","NA","space","None","a","0.015200115740299225","NA","4901.745700044557","NA","16460.904199862853","0.015200115740299225","571.1215999908745","2","psycho","1024","2","48000","-16","experiment","999","odd","신발","artifactual","NA","156510.54110005498","37683.52129985578","37683.47349995747","NA","32779.63129989803","7804.495600052178","37683.03479999304","NA","155787.2466999106","7944.354200037196","157190.93799986877","157191.2871999666","24407.32629992999","156002.42100004107","NA","156618.08379995637","155777.24560000934","Extended template","0","0.9936005808413029","58","yes","1024"
"0","0","0.01711356927151397","0.01711356927151397","white","yes","psycho","psycho","psycho","0","uniform","0","undefined","0","a","1","0","61","1","1","0","0","0","0","NA","61","0","61","61","0","61","1","61","61","Tue Dec  5 17:44:10 2023","A template containing a practice and an experimental phase","yes","언어학과심리실험_B조_기말과제용심리실험.osexp","E:\2023년도 1학기\언어학과심리실험","no","mono","no","18","no","black","no","no","768","psycho","58","58","0","E:\2023년도 1학기\언어학과심리실험\quickrun.csv","psycho","Lentiform Loewenfeld","3.3.14","no","피자","artifactual","similar-environmental","0","None","NA","space","NA","space","None","a","0.01610000617802143","NA","4901.745700044557","NA","16460.904199862853","0.01610000617802143","822.4859999027103","2","psycho","1024","2","48000","-16","experiment","999","odd","파스타","artifactual","NA","158007.53790000454","37683.52129985578","37683.47349995747","NA","32779.63129989803","7804.495600052178","37683.03479999304","NA","157283.83239987306","7944.354200037196","158938.87669988908","158939.2442998942","24407.32629992999","157499.88320004195","NA","158114.73749997094","157277.03909995034","Extended template","0","1.0097005870193243","59","yes","1024"
"0","0","0.017121674803396065","0.017121674803396065","white","yes","psycho","psycho","psycho","0","uniform","0","undefined","0","a","1","0","62","1","1","0","0","0","0","NA","62","0","62","62","0","62","1","62","62","Tue Dec  5 17:44:10 2023","A template containing a practice and an experimental phase","yes","언어학과심리실험_B조_기말과제용심리실험.osexp","E:\2023년도 1학기\언어학과심리실험","no","mono","no","18","no","black","no","no","768","psycho","59","59","0","E:\2023년도 1학기\언어학과심리실험\quickrun.csv","psycho","Lentiform Loewenfeld","3.3.14","no","전기","natural","similar-environmental","0","None","NA","space","NA","space","None","a","0.01759990118443966","NA","4901.745700044557","NA","16460.904199862853","0.01759990118443966","898.386700078845","2","psycho","1024","2","48000","-16","experiment","999","odd","전선","artifactual","NA","159745.83279993385","37683.52129985578","37683.47349995747","NA","32779.63129989803","7804.495600052178","37683.03479999304","NA","159030.0667998381","7944.354200037196","160771.04469994083","160771.40019997023","24407.32629992999","159238.65309986286","NA","159870.77719997615","159017.72310002707","Extended template","0","1.027300488203764","60","yes","1024"
"0","0","0.017091811283445748","0.017091811283445748","white","yes","psycho","psycho","psycho","0","uniform","0","undefined","0","a","1","0","63","1","1","0","0","0","0","NA","63","0","63","63","0","63","1","63","63","Tue Dec  5 17:44:10 2023","A template containing a practice and an experimental phase","yes","언어학과심리실험_B조_기말과제용심리실험.osexp","E:\2023년도 1학기\언어학과심리실험","no","mono","no","18","no","black","no","no","768","psycho","60","60","0","E:\2023년도 1학기\언어학과심리실험\quickrun.csv","psycho","Lentiform Loewenfeld","3.3.14","no","바람","natural","similar-environmental","0","None","NA","space","NA","space","None","a","0.015300000086426735","NA","4901.745700044557","NA","16460.904199862853","0.015300000086426735","576.5293999575078","2","psycho","1024","2","48000","-16","experiment","999","odd","창문","artifactual","NA","161600.79519986175","37683.52129985578","37683.47349995747","NA","32779.63129989803","7804.495600052178","37683.03479999304","NA","160885.03069989383","7944.354200037196","162286.84369986877","162287.20519994386","24407.32629992999","161092.54530002363","NA","161708.67429999635","160877.90720001794","Extended template","0","1.0426004882901907","61","yes","1024"
"0","0","0.017088717750964627","0.017088717750964627","white","yes","psycho","psycho","psycho","0","uniform","0","undefined","0","a","0","0","64","1","1","0","0","0","0","NA","64","0","64","64","0","64","1","64","64","Tue Dec  5 17:44:10 2023","A template containing a practice and an experimental phase","yes","언어학과심리실험_B조_기말과제용심리실험.osexp","E:\2023년도 1학기\언어학과심리실험","no","mono","no","18","no","black","no","no","768","psycho","61","61","0","E:\2023년도 1학기\언어학과심리실험\quickrun.csv","psycho","Lentiform Loewenfeld","3.3.14","no","꽃","natural","no-correlation","0","None","NA","space","NA","space","None","x","0.016900012269616127","NA","4901.745700044557","NA","16460.904199862853","0.016900012269616127","1589.5245999563485","2","psycho","1024","2","48000","-16","experiment","999","odd","경주","artifactual","NA","163106.3118998427","37683.52129985578","37683.47349995747","NA","32779.63129989803","7804.495600052178","37683.03479999304","NA","162382.99699989147","7944.354200037196","164803.65010001697","164804.02629985474","24407.32629992999","162598.82989991456","NA","163211.6485000588","162373.581700027","Extended template","0","1.0595005005598068","62","yes","1024"
"0","0","0.017084136960052308","0.017084136960052308","white","yes","psycho","psycho","psycho","0","uniform","0","undefined","0","a","1","0","65","1","1","0","0","0","0","NA","65","0","65","65","0","65","1","65","65","Tue Dec  5 17:44:10 2023","A template containing a practice and an experimental phase","yes","언어학과심리실험_B조_기말과제용심리실험.osexp","E:\2023년도 1학기\언어학과심리실험","no","mono","no","18","no","black","no","no","768","psycho","62","62","0","E:\2023년도 1학기\언어학과심리실험\quickrun.csv","psycho","Lentiform Loewenfeld","3.3.14","no","모자","artifactual","no-correlation","0","None","NA","space","NA","space","None","a","0.016800127923488617","NA","4901.745700044557","NA","16460.904199862853","0.016800127923488617","714.5688000600785","2","psycho","1024","2","48000","-16","experiment","999","odd","마우스","artifactual","NA","165619.54099987634","37683.52129985578","37683.47349995747","NA","32779.63129989803","7804.495600052178","37683.03479999304","NA","164903.65720004775","7944.354200037196","166444.19649988413","166444.5863000583","24407.32629992999","165110.3663998656","NA","165726.6195998527","164887.915099971","Extended template","0","1.0763006284832954","63","yes","1024"
"0","0","0.017156260582851246","0.017156260582851246","white","yes","psycho","psycho","psycho","0","uniform","0","undefined","0","n","1","0","66","1","1","0","0","0","0","NA","66","0","66","66","0","66","1","66","66","Tue Dec  5 17:44:10 2023","A template containing a practice and an experimental phase","yes","언어학과심리실험_B조_기말과제용심리실험.osexp","E:\2023년도 1학기\언어학과심리실험","no","mono","no","18","no","black","no","no","768","psycho","63","63","0","E:\2023년도 1학기\언어학과심리실험\quickrun.csv","psycho","Lentiform Loewenfeld","3.3.14","no","불","natural","no-correlation","0","None","NA","space","NA","space","None","n","0.021700048819184303","NA","4901.745700044557","NA","16460.904199862853","0.021700048819184303","927.3326999973506","2","psycho","1024","2","48000","-16","experiment","999","odd","바위","natural","NA","167265.5954998918","37683.52129985578","37683.47349995747","NA","32779.63129989803","7804.495600052178","37683.03479999304","NA","166542.40959999152","7944.354200037196","168303.1123999972","168303.63740003668","24407.32629992999","166758.07880004868","NA","167373.83509986103","166530.74579988606","Extended template","0","1.0980006773024797","64","yes","1024"
"0","0","0.017158472194121435","0.017158472194121435","white","yes","psycho","psycho","psycho","0","uniform","0","undefined","0","n","1","0","67","1","1","0","0","0","0","NA","67","0","67","67","0","67","1","67","67","Tue Dec  5 17:44:10 2023","A template containing a practice and an experimental phase","yes","언어학과심리실험_B조_기말과제용심리실험.osexp","E:\2023년도 1학기\언어학과심리실험","no","mono","no","18","no","black","no","no","768","psycho","64","64","0","E:\2023년도 1학기\언어학과심리실험\quickrun.csv","psycho","Lentiform Loewenfeld","3.3.14","no","상새고","non-word","non-word","0","None","NA","space","NA","space","None","n","0.017300015315413475","NA","4901.745700044557","NA","16460.904199862853","0.017300015315413475","1108.4551999811083","2","psycho","1024","2","48000","-16","experiment","999","odd","나뭇잎","natural","NA","169120.22819998674","37683.52129985578","37683.47349995747","NA","32779.63129989803","7804.495600052178","37683.03479999304","NA","168397.53589988686","7944.354200037196","170334.54539999366","170334.9347000476","24407.32629992999","168613.4005000349","NA","169224.68900005333","168390.20169992","Extended template","0","1.1153006926178932","65","yes","1024"
"0","0","0.01715758646076376","0.01715758646076376","white","yes","psycho","psycho","psycho","0","uniform","0","undefined","0","n","1","0","68","1","1","0","0","0","0","NA","68","0","68","68","0","68","1","68","68","Tue Dec  5 17:44:10 2023","A template containing a practice and an experimental phase","yes","언어학과심리실험_B조_기말과제용심리실험.osexp","E:\2023년도 1학기\언어학과심리실험","no","mono","no","18","no","black","no","no","768","psycho","65","65","0","E:\2023년도 1학기\언어학과심리실험\quickrun.csv","psycho","Lentiform Loewenfeld","3.3.14","no","밤하늘","natural","no-correlation","0","None","NA","space","NA","space","None","n","0.0171000137925148","NA","4901.745700044557","NA","16460.904199862853","0.0171000137925148","1406.2451000791043","2","psycho","1024","2","48000","-16","experiment","999","odd","바위","natural","NA","171167.02369996347","37683.52129985578","37683.47349995747","NA","32779.63129989803","7804.495600052178","37683.03479999304","NA","170435.29929989018","7944.354200037196","172683.12119995244","172683.51530004293","24407.32629992999","170651.37710003182","NA","171274.92549992166","170421.78169987164","Extended template","0","1.132400706410408","66","yes","1024"
"0","0","0.017391055572166372","0.017391055572166372","white","yes","psycho","psycho","psycho","0","uniform","0","undefined","0","a","1","0","69","1","1","0","0","0","0","NA","69","0","69","69","0","69","1","69","69","Tue Dec  5 17:44:10 2023","A template containing a practice and an experimental phase","yes","언어학과심리실험_B조_기말과제용심리실험.osexp","E:\2023년도 1학기\언어학과심리실험","no","mono","no","18","no","black","no","no","768","psycho","66","66","0","E:\2023년도 1학기\언어학과심리실험\quickrun.csv","psycho","Lentiform Loewenfeld","3.3.14","no","종이","artifactual","similar-environmental","0","None","NA","space","NA","space","None","a","0.032800016924738884","NA","4901.745700044557","NA","16460.904199862853","0.032800016924738884","736.5535001736134","2","psycho","1024","2","48000","-16","experiment","999","odd","프린터","artifactual","NA","173505.09290001355","37683.52129985578","37683.47349995747","NA","32779.63129989803","7804.495600052178","37683.03479999304","NA","172781.46149986424","7944.354200037196","174351.1405000463","174351.57599998638","24407.32629992999","172996.94769992493","NA","173612.62599984184","172770.91189986095","Extended template","0","1.165200723335147","67","yes","1024"
"0","0","0.017366187153931928","0.017366187153931928","white","yes","psycho","psycho","psycho","0","uniform","0","undefined","0","n","1","0","70","1","1","0","0","0","0","NA","70","0","70","70","0","70","1","70","70","Tue Dec  5 17:44:10 2023","A template containing a practice and an experimental phase","yes","언어학과심리실험_B조_기말과제용심리실험.osexp","E:\2023년도 1학기\언어학과심리실험","no","mono","no","18","no","black","no","no","768","psycho","67","67","0","E:\2023년도 1학기\언어학과심리실험\quickrun.csv","psycho","Lentiform Loewenfeld","3.3.14","no","호수","natural","same phoneme","0","None","NA","space","NA","space","None","n","0.015700003132224083","NA","4901.745700044557","NA","16460.904199862853","0.015700003132224083","1396.8913001008332","2","psycho","1024","2","48000","-16","experiment","999","odd","호랑이","natural","NA","175168.35609986447","37683.52129985578","37683.47349995747","NA","32779.63129989803","7804.495600052178","37683.03479999304","NA","174446.3835998904","7944.354200037196","176675.07250001654","176675.46489997767","24407.32629992999","174660.75999988243","NA","175276.35349985212","174438.89039987698","Extended template","0","1.180900726467371","68","yes","1024"
"0","0","0.017357980022611824","0.017357980022611824","white","yes","psycho","psycho","psycho","0","uniform","0","undefined","0","a","1","0","71","1","1","0","0","0","0","NA","71","0","71","71","0","71","1","71","71","Tue Dec  5 17:44:10 2023","A template containing a practice and an experimental phase","yes","언어학과심리실험_B조_기말과제용심리실험.osexp","E:\2023년도 1학기\언어학과심리실험","no","mono","no","18","no","black","no","no","768","psycho","68","68","0","E:\2023년도 1학기\언어학과심리실험\quickrun.csv","psycho","Lentiform Loewenfeld","3.3.14","no","벌레","natural","same phoneme","0","None","NA","space","NA","space","None","a","0.016799895092844963","NA","4901.745700044557","NA","16460.904199862853","0.016799895092844963","2443.527099909261","2","psycho","1024","2","48000","-16","experiment","999","odd","발레","artifactual","NA","177497.94139992446","37683.52129985578","37683.47349995747","NA","32779.63129989803","7804.495600052178","37683.03479999304","NA","176774.95449990965","7944.354200037196","180051.33199994452","180051.7758000642","24407.32629992999","176989.50699996203","NA","177605.67239997908","176762.48729997315","Extended template","0","1.197700621560216","69","yes","1024"
"0","0","0.017335721557693824","0.017335721557693824","white","yes","psycho","psycho","psycho","0","uniform","0","undefined","0","n","1","0","72","1","1","0","0","0","0","NA","72","0","72","72","0","72","1","72","72","Tue Dec  5 17:44:10 2023","A template containing a practice and an experimental phase","yes","언어학과심리실험_B조_기말과제용심리실험.osexp","E:\2023년도 1학기\언어학과심리실험","no","mono","no","18","no","black","no","no","768","psycho","69","69","0","E:\2023년도 1학기\언어학과심리실험\quickrun.csv","psycho","Lentiform Loewenfeld","3.3.14","no","호랑이","natural","same phoneme","0","None","NA","space","NA","space","None","n","0.015799887478351593","NA","4901.745700044557","NA","16460.904199862853","0.015799887478351593","755.1676000002772","2","psycho","1024","2","48000","-16","experiment","999","odd","호수","natural","NA","180859.06949988566","37683.52129985578","37683.47349995747","NA","32779.63129989803","7804.495600052178","37683.03479999304","NA","180142.42399996147","7944.354200037196","181722.89910004474","181723.29999995418","24407.32629992999","180350.56059993804","NA","180965.96769988537","180135.4197000619","Extended template","0","1.2135005090385675","70","yes","1024"
"0","0","0.017336625474649415","0.017336625474649415","white","yes","psycho","psycho","psycho","0","uniform","0","undefined","0","n","1","0","73","1","1","0","0","0","0","NA","73","0","73","73","0","73","1","73","73","Tue Dec  5 17:44:10 2023","A template containing a practice and an experimental phase","yes","언어학과심리실험_B조_기말과제용심리실험.osexp","E:\2023년도 1학기\언어학과심리실험","no","mono","no","18","no","black","no","no","768","psycho","70","70","0","E:\2023년도 1학기\언어학과심리실험\quickrun.csv","psycho","Lentiform Loewenfeld","3.3.14","no","전구","artifactual","similar-environmental","0","None","NA","space","NA","space","None","n","0.017399899661540985","NA","4901.745700044557","NA","16460.904199862853","0.017399899661540985","1742.1285999007523","2","psycho","1024","2","48000","-16","experiment","999","odd","빛","natural","NA","182547.2784000449","37683.52129985578","37683.47349995747","NA","32779.63129989803","7804.495600052178","37683.03479999304","NA","181831.8926000502","7944.354200037196","184398.87210004963","184399.3372998666","24407.32629992999","182038.24869985692","NA","182655.03380005248","181819.72739985213","Extended template","0","1.2309004087001085","71","yes","1024"
"0","0","0.01732500580449899","0.01732500580449899","white","yes","psycho","psycho","psycho","0","uniform","0","undefined","0","a","1","0","74","1","1","0","0","0","0","NA","74","0","74","74","0","74","1","74","74","Tue Dec  5 17:44:10 2023","A template containing a practice and an experimental phase","yes","언어학과심리실험_B조_기말과제용심리실험.osexp","E:\2023년도 1학기\언어학과심리실험","no","mono","no","18","no","black","no","no","768","psycho","71","71","0","E:\2023년도 1학기\언어학과심리실험\quickrun.csv","psycho","Lentiform Loewenfeld","3.3.14","no","컴퓨터","artifactual","similar-environmental","0","None","NA","space","NA","space","None","a","0.01650000922381878","NA","4901.745700044557","NA","16460.904199862853","0.01650000922381878","959.8522000014782","2","psycho","1024","2","48000","-16","experiment","999","odd","키보드","artifactual","NA","185225.0892999582","37683.52129985578","37683.47349995747","NA","32779.63129989803","7804.495600052178","37683.03479999304","NA","184502.90840002708","7944.354200037196","186294.8163000401","186295.2294999268","24407.32629992999","184717.7093999926","NA","185333.3284999244","184489.64249994606","Extended template","0","1.2474004179239273","72","yes","1024"
"0","0","0.017321923722143043","0.017321923722143043","white","yes","psycho","psycho","psycho","0","uniform","0","undefined","0","n","1","0","75","1","1","0","0","0","0","NA","75","0","75","75","0","75","1","75","75","Tue Dec  5 17:44:10 2023","A template containing a practice and an experimental phase","yes","언어학과심리실험_B조_기말과제용심리실험.osexp","E:\2023년도 1학기\언어학과심리실험","no","mono","no","18","no","black","no","no","768","psycho","72","72","0","E:\2023년도 1학기\언어학과심리실험\quickrun.csv","psycho","Lentiform Loewenfeld","3.3.14","no","얼음","natural","no-correlation","0","None","NA","space","NA","space","None","n","0.0171000137925148","NA","4901.745700044557","NA","16460.904199862853","0.0171000137925148","714.5108000840992","2","psycho","1024","2","48000","-16","experiment","999","odd","돌","natural","NA","187113.7013998814","37683.52129985578","37683.47349995747","NA","32779.63129989803","7804.495600052178","37683.03479999304","NA","186390.44869993813","7944.354200037196","187938.93629987724","187939.36129985377","24407.32629992999","186598.39719999582","NA","187222.59499994107","186381.93030003458","Extended template","0","1.264500431716442","73","yes","1024"
"0","0","0.01732568017433624","0.01732568017433624","white","yes","psycho","psycho","psycho","0","uniform","0","undefined","0","n","0","0","76","1","1","0","0","0","0","NA","76","0","76","76","0","76","1","76","76","Tue Dec  5 17:44:10 2023","A template containing a practice and an experimental phase","yes","언어학과심리실험_B조_기말과제용심리실험.osexp","E:\2023년도 1학기\언어학과심리실험","no","mono","no","18","no","black","no","no","768","psycho","73","73","0","E:\2023년도 1학기\언어학과심리실험\quickrun.csv","psycho","Lentiform Loewenfeld","3.3.14","no","패딩","artifactual","similar-environmental","0","None","NA","space","NA","space","None","x","0.01759990118443966","NA","4901.745700044557","NA","16460.904199862853","0.01759990118443966","3716.6917000431567","2","psycho","1024","2","48000","-16","experiment","999","odd","겨울","natural","NA","188753.65510000847","37683.52129985578","37683.47349995747","NA","32779.63129989803","7804.495600052178","37683.03479999304","NA","188037.01169998385","7944.354200037196","192578.50549998693","192579.04049986973","24407.32629992999","188244.62560005486","NA","188860.45949999243","188030.94039997086","Extended template","0","1.2821003329008818","74","yes","1024"
"0","0","0.01734800636768341","0.01734800636768341","white","yes","psycho","psycho","psycho","0","uniform","0","undefined","0","a","1","0","77","1","1","0","0","0","0","NA","77","0","77","77","0","77","1","77","77","Tue Dec  5 17:44:10 2023","A template containing a practice and an experimental phase","yes","언어학과심리실험_B조_기말과제용심리실험.osexp","E:\2023년도 1학기\언어학과심리실험","no","mono","no","18","no","black","no","no","768","psycho","74","74","0","E:\2023년도 1학기\언어학과심리실험\quickrun.csv","psycho","Lentiform Loewenfeld","3.3.14","no","기계","artifactual","inclusive","0","None","NA","space","NA","space","None","a","0.01900014467537403","NA","4901.745700044557","NA","16460.904199862853","0.01900014467537403","785.9745000023395","2","psycho","1024","2","48000","-16","experiment","999","odd","컴퓨터","artifactual","NA","193403.41789997183","37683.52129985578","37683.47349995747","NA","32779.63129989803","7804.495600052178","37683.03479999304","NA","192680.15459994785","7944.354200037196","194299.23269990832","194299.71719998866","24407.32629992999","192895.20619995892","NA","193511.1648000311","192667.41600004025","Extended template","0","1.3011004775762558","75","yes","1024"
"0","0","0.017321058916614243","0.017321058916614243","white","yes","psycho","psycho","psycho","0","uniform","0","undefined","0","n","1","0","78","1","1","0","0","0","0","NA","78","0","78","78","0","78","1","78","78","Tue Dec  5 17:44:10 2023","A template containing a practice and an experimental phase","yes","언어학과심리실험_B조_기말과제용심리실험.osexp","E:\2023년도 1학기\언어학과심리실험","no","mono","no","18","no","black","no","no","768","psycho","75","75","0","E:\2023년도 1학기\언어학과심리실험\quickrun.csv","psycho","Lentiform Loewenfeld","3.3.14","no","호수","natural","no-correlation","0","None","NA","space","NA","space","None","n","0.015300000086426735","NA","4901.745700044557","NA","16460.904199862853","0.015300000086426735","1387.9487002268434","2","psycho","1024","2","48000","-16","experiment","999","odd","소나무","natural","NA","195124.22190001234","37683.52129985578","37683.47349995747","NA","32779.63129989803","7804.495600052178","37683.03479999304","NA","194401.24280005693","7944.354200037196","196618.58760006726","196619.09679998644","24407.32629992999","194616.99260002933","NA","195229.23229984008","194387.06739991903","Extended template","0","1.3164004776626825","76","yes","1024"
"0","0","0.017315590778341543","0.017315590778341543","white","yes","psycho","psycho","psycho","0","uniform","0","undefined","0","n","1","0","79","1","1","0","0","0","0","NA","79","0","79","79","0","79","1","79","79","Tue Dec  5 17:44:10 2023","A template containing a practice and an experimental phase","yes","언어학과심리실험_B조_기말과제용심리실험.osexp","E:\2023년도 1학기\언어학과심리실험","no","mono","no","18","no","black","no","no","768","psycho","76","76","0","E:\2023년도 1학기\언어학과심리실험\quickrun.csv","psycho","Lentiform Loewenfeld","3.3.14","no","새","natural","inclusive","0","None","NA","space","NA","space","None","n","0.016900012269616127","NA","4901.745700044557","NA","16460.904199862853","0.016900012269616127","1080.3582000080496","2","psycho","1024","2","48000","-16","experiment","999","odd","까치","natural","NA","197429.03689993545","37683.52129985578","37683.47349995747","NA","32779.63129989803","7804.495600052178","37683.03479999304","NA","196713.57969986275","7944.354200037196","198619.24629984424","198619.7005000431","24407.32629992999","196920.4519998748","NA","197536.93889989518","196705.3781999275","Extended template","0","1.3333004899322987","77","yes","1024"
"0","0","0.01732436701273307","0.01732436701273307","white","yes","psycho","psycho","psycho","0","uniform","0","undefined","0","a","1","0","80","1","1","0","0","0","0","NA","80","0","80","80","0","80","1","80","80","Tue Dec  5 17:44:10 2023","A template containing a practice and an experimental phase","yes","언어학과심리실험_B조_기말과제용심리실험.osexp","E:\2023년도 1학기\언어학과심리실험","no","mono","no","18","no","black","no","no","768","psycho","77","77","0","E:\2023년도 1학기\언어학과심리실험\quickrun.csv","psycho","Lentiform Loewenfeld","3.3.14","no","안음풍","non-word","non-word","0","None","NA","space","NA","space","None","a","0.01800013706088066","NA","4901.745700044557","NA","16460.904199862853","0.01800013706088066","711.0939999110997","2","psycho","1024","2","48000","-16","experiment","999","odd","의자","artifactual","NA","199442.2448000405","37683.52129985578","37683.47349995747","NA","32779.63129989803","7804.495600052178","37683.03479999304","NA","198718.30499987118","7944.354200037196","200263.08429986238","200263.5737999808","24407.32629992999","198933.71879984625","NA","199550.03129993565","198704.89649986848","Extended template","0","1.3513006269931793","78","yes","1024"
"0","0","0.017516465291758126","0.017516465291758126","white","yes","psycho","psycho","psycho","0","uniform","0","undefined","0","x","1","0","81","1","1","0","0","0","0","NA","81","0","81","81","0","81","1","81","81","Tue Dec  5 17:44:10 2023","A template containing a practice and an experimental phase","yes","언어학과심리실험_B조_기말과제용심리실험.osexp","E:\2023년도 1학기\언어학과심리실험","no","mono","no","18","no","black","no","no","768","psycho","78","78","0","E:\2023년도 1학기\언어학과심리실험\quickrun.csv","psycho","Lentiform Loewenfeld","3.3.14","no","사자","natural","non-word","0","None","NA","space","NA","space","None","x","0.0325001310557127","NA","4901.745700044557","NA","16460.904199862853","0.0325001310557127","1257.210599957034","2","psycho","1024","2","48000","-16","experiment","999","odd","러스바이","non-word","NA","201088.44539988786","37683.52129985578","37683.47349995747","NA","32779.63129989803","7804.495600052178","37683.03479999304","NA","200365.26079988107","7944.354200037196","202451.31509983912","202451.92019990645","24407.32629992999","200581.29819994792","NA","201191.97959988378","200356.20289994404","Extended template","0","1.383800758048892","79","yes","1024"
"0","0","0.017497510998509824","0.017497510998509824","white","yes","psycho","psycho","psycho","0","uniform","0","undefined","0","x","1","0","82","1","1","0","0","0","0","NA","82","0","82","82","0","82","1","82","82","Tue Dec  5 17:44:10 2023","A template containing a practice and an experimental phase","yes","언어학과심리실험_B조_기말과제용심리실험.osexp","E:\2023년도 1학기\언어학과심리실험","no","mono","no","18","no","black","no","no","768","psycho","79","79","0","E:\2023년도 1학기\언어학과심리실험\quickrun.csv","psycho","Lentiform Loewenfeld","3.3.14","no","시계","artifactual","non-word","0","None","NA","space","NA","space","None","x","0.01600012183189392","NA","4901.745700044557","NA","16460.904199862853","0.01600012183189392","2768.2092001195997","2","psycho","1024","2","48000","-16","experiment","999","odd","책솜","non-word","NA","203285.2942000609","37683.52129985578","37683.47349995747","NA","32779.63129989803","7804.495600052178","37683.03479999304","NA","202562.4220999889","7944.354200037196","206162.29379992","206162.74339985102","24407.32629992999","202777.5520000141","NA","203392.9216999095","202551.742099924","Extended template","0","1.399800879880786","80","yes","1024"
"0","0","0.01748889845646458","0.01748889845646458","white","yes","psycho","psycho","psycho","0","uniform","0","undefined","0","a","1","0","83","1","1","0","0","0","0","NA","83","0","83","83","0","83","1","83","83","Tue Dec  5 17:44:10 2023","A template containing a practice and an experimental phase","yes","언어학과심리실험_B조_기말과제용심리실험.osexp","E:\2023년도 1학기\언어학과심리실험","no","mono","no","18","no","black","no","no","768","psycho","80","80","0","E:\2023년도 1학기\언어학과심리실험\quickrun.csv","psycho","Lentiform Loewenfeld","3.3.14","no","키보드","artifactual","similar-environmental","0","None","NA","space","NA","space","None","a","0.016799895092844963","NA","4901.745700044557","NA","16460.904199862853","0.016799895092844963","873.5154001042247","2","psycho","1024","2","48000","-16","experiment","999","odd","컴퓨터","artifactual","NA","206978.12330001034","37683.52129985578","37683.47349995747","NA","32779.63129989803","7804.495600052178","37683.03479999304","NA","206262.81720004044","7944.354200037196","207959.2544999905","207959.71570000984","24407.32629992999","206470.70379997604","NA","207083.7027998641","206249.2096000351","Extended template","0","1.416600774973631","81","yes","1024"
