acc,accuracy,average_response_time,avg_rt,background,bidi,canvas_backend,clock_backend,color_backend,compensation,coordinates,correct,correct_instructions,correct_keyboard_response,correct_response,correct_target,count_about_this_template,count_blank,count_block_loop,count_block_sequence,count_end_of_experiment,count_end_of_practice,count_experiment,count_experimental_loop,count_feedback,count_fixation,count_instructions,count_keyboard_response,count_logger,count_practice_loop,count_prime,count_reset_feedback,count_target,count_trial_sequence,datetime,description,disable_garbage_collection,experiment_file,experiment_path,font_bold,font_family,font_italic,font_size,font_underline,foreground,form_clicks,fullscreen,height,keyboard_backend,live_row,live_row_block_loop,live_row_practice_loop,logfile,mouse_backend,opensesame_codename,opensesame_version,practice,prime,prime_condition,relation,repeat_cycle,response,response_end_of_experiment,response_end_of_practice,response_feedback,response_instructions,response_keyboard_response,response_target,response_time,response_time_end_of_experiment,response_time_end_of_practice,response_time_feedback,response_time_instructions,response_time_keyboard_response,response_time_target,round_decimals,sampler_backend,sound_buf_size,sound_channels,sound_freq,sound_sample_size,start,subject_nr,subject_parity,target,target_condition,time_about_this_template,time_blank,time_block_loop,time_block_sequence,time_end_of_experiment,time_end_of_practice,time_experiment,time_experimental_loop,time_feedback,time_fixation,time_instructions,time_keyboard_response,time_logger,time_practice_loop,time_prime,time_reset_feedback,time_target,time_trial_sequence,title,total_correct,total_response_time,total_responses,uniform_coordinates,width
0,0,0.0153,0.0153,white,yes,psycho,psycho,psycho,0,uniform,0,undefined,0,a,1,0,0,0,0,0,0,0,0,NA,0,0,0,0,0,0,0,0,0,Sun Dec  3 01:03:01 2023,A template containing a practice and an experimental phase,yes,?¸ì–´?™ê³¼?¬ë¦¬?¤í—˜_Bì¡?ê¸°ë§ê³¼ì œ?©ì‹¬ë¦¬ì‹¤??osexp,E:\2023?„ë„ 1?™ê¸°\?¸ì–´?™ê³¼?¬ë¦¬?¤í—˜,no,mono,no,18,no,black,no,no,768,psycho,0,0,0,E:\2023?„ë„ 1?™ê¸°\?¸ì–´?™ê³¼?¬ë¦¬?¤í—˜\quickrun.csv,psycho,Lentiform Loewenfeld,3.3.14,yes,?±ëƒ¥,artifactual,same phoneme,0,None,NA,NA,NA,space,None,a,0.0153,NA,NA,NA,6461.0581,0.0153,388.3306,2,psycho,1024,2,48000,-16,experiment,999,odd,"?±ì ??,artifactual""",NA,10162.0785,9393.1477,9393.0503,NA,NA,2882.2141,NA,NA,9446.656,2930.4788,10656.6302,10656.721,9392.6066,9652.6616,NA,10267.2736,9437.1726,Extended template,0,0.0153,1,yes,1024,
0,0,0.015700003,0.015700003,white,yes,psycho,psycho,psycho,0,uniform,0,undefined,0,n,1,0,1,0,0,0,0,0,0,NA,1,0,1,1,0,1,0,1,1,Sun Dec  3 01:03:01 2023,A template containing a practice and an experimental phase,yes,?¸ì–´?™ê³¼?¬ë¦¬?¤í—˜_Bì¡?ê¸°ë§ê³¼ì œ?©ì‹¬ë¦¬ì‹¤??osexp,E:\2023?„ë„ 1?™ê¸°\?¸ì–´?™ê³¼?¬ë¦¬?¤í—˜,no,mono,no,18,no,black,no,no,768,psycho,1,1,0,E:\2023?„ë„ 1?™ê¸°\?¸ì–´?™ê³¼?¬ë¦¬?¤í—˜\quickrun.csv,psycho,Lentiform Loewenfeld,3.3.14,yes,"??,natural""",inclusive,0,None,NA,NA,NA,space,None,n,0.016100006,NA,NA,NA,6461.0581,0.016100006,583.0259999,2,psycho,1024,2,48000,-16,experiment,999,odd,?˜ë¬´,natural,NA,11459.8788,9393.1477,9393.0503,NA,NA,2882.2141,NA,NA,10744.3755,2930.4788,12148.169,12148.2634,9392.6066,10951.894,NA,11564.6554,10737.3866,Extended template,0,0.031400006,2,yes,1024,
0,0,0.016200007,0.016200007,white,yes,psycho,psycho,psycho,0,uniform,0,undefined,0,a,1,0,2,0,0,0,0,0,0,NA,2,0,2,2,0,2,0,2,2,Sun Dec  3 01:03:01 2023,A template containing a practice and an experimental phase,yes,?¸ì–´?™ê³¼?¬ë¦¬?¤í—˜_Bì¡?ê¸°ë§ê³¼ì œ?©ì‹¬ë¦¬ì‹¤??osexp,E:\2023?„ë„ 1?™ê¸°\?¸ì–´?™ê³¼?¬ë¦¬?¤í—˜,no,mono,no,18,no,black,no,no,768,psycho,2,2,0,E:\2023?„ë„ 1?™ê¸°\?¸ì–´?™ê³¼?¬ë¦¬?¤í—˜\quickrun.csv,psycho,Lentiform Loewenfeld,3.3.14,yes,"?¤ë³´??,artifactual""",similar-environmental,0,None,NA,NA,NA,space,None,a,0.017200015,NA,NA,NA,6461.0581,0.017200015,696.3801,2,psycho,1024,2,48000,-16,experiment,999,odd,"ì»´í“¨??,artifactual""",NA,12949.0062,9393.1477,9393.0503,NA,NA,2882.2141,NA,NA,12233.6158,2930.4788,13752.1588,13752.2571,9392.6066,12439.8818,NA,13055.1897,12223.3498,Extended template,0,0.048600021,3,yes,1024,,
0,0,0.019999919,0.019999919,white,yes,psycho,psycho,psycho,0,uniform,0,undefined,0,a,1,0,3,1,1,0,0,0,0,NA,3,0,3,3,0,3,1,3,3,Sun Dec  3 01:03:01 2023,A template containing a practice and an experimental phase,yes,?¸ì–´?™ê³¼?¬ë¦¬?¤í—˜_Bì¡?ê¸°ë§ê³¼ì œ?©ì‹¬ë¦¬ì‹¤??osexp,E:\2023?„ë„ 1?™ê¸°\?¸ì–´?™ê³¼?¬ë¦¬?¤í—˜,no,mono,no,18,no,black,no,no,768,psycho,0,0,0,E:\2023?„ë„ 1?™ê¸°\?¸ì–´?™ê³¼?¬ë¦¬?¤í—˜\quickrun.csv,psycho,Lentiform Loewenfeld,3.3.14,no,êµ¬ë¦„,natural,same phoneme,0,None,NA,a,NA,space,None,a,0.019999919,NA,2593.109,NA,6461.0581,0.019999919,2071.5587,2,psycho,1024,2,48000,-16,experiment,999,odd,êµ¬ë‘,artifactual,NA,17191.3954,16432.6265,16432.5808,NA,13838.4886,2882.2141,16432.1404,NA,16476.6349,2930.4788,19368.1547,19368.2588,9392.6066,16683.951,NA,17296.0431,16468.1157,Extended template,0,0.019999919,1,yes,1024
0,0,0.01764996,0.01764996,white,yes,psycho,psycho,psycho,0,uniform,0,undefined,0,a,1,0,4,1,1,0,0,0,0,NA,4,0,4,4,0,4,1,4,4,Sun Dec  3 01:03:01 2023,A template containing a practice and an experimental phase,yes,?¸ì–´?™ê³¼?¬ë¦¬?¤í—˜_Bì¡?ê¸°ë§ê³¼ì œ?©ì‹¬ë¦¬ì‹¤??osexp,E:\2023?„ë„ 1?™ê¸°\?¸ì–´?™ê³¼?¬ë¦¬?¤í—˜,no,mono,no,18,no,black,no,no,768,psycho,1,1,0,E:\2023?„ë„ 1?™ê¸°\?¸ì–´?™ê³¼?¬ë¦¬?¤í—˜\quickrun.csv,psycho,Lentiform Loewenfeld,3.3.14,no,"?ˆìŒ??,non-word""",non-word,0,None,NA,a,NA,space,None,a,0.0153,NA,2593.109,NA,6461.0581,0.0153,1665.0845,2,psycho,1024,2,48000,-16,experiment,999,odd,?˜ì,artifactual,NA,20169.6083,16432.6265,16432.5808,NA,13838.4886,2882.2141,16432.1404,NA,19453.9357,2930.4788,21940.2933,21940.3942,9392.6066,19662.141,NA,20274.5143,19445.4193,Extended template,0,0.03529992,2,yes,1024,
0,0,0.017033308,0.017033308,white,yes,psycho,psycho,psycho,0,uniform,0,undefined,0,a,1,0,5,1,1,0,0,0,0,NA,5,0,5,5,0,5,1,5,5,Sun Dec  3 01:03:01 2023,A template containing a practice and an experimental phase,yes,?¸ì–´?™ê³¼?¬ë¦¬?¤í—˜_Bì¡?ê¸°ë§ê³¼ì œ?©ì‹¬ë¦¬ì‹¤??osexp,E:\2023?„ë„ 1?™ê¸°\?¸ì–´?™ê³¼?¬ë¦¬?¤í—˜,no,mono,no,18,no,black,no,no,768,psycho,2,2,0,E:\2023?„ë„ 1?™ê¸°\?¸ì–´?™ê³¼?¬ë¦¬?¤í—˜\quickrun.csv,psycho,Lentiform Loewenfeld,3.3.14,no,?Œí”¼,non-word,non-word,0,None,NA,a,NA,space,None,a,0.015800004,NA,2593.109,NA,6461.0581,0.015800004,1610.8062,2,psycho,1024,2,48000,-16,experiment,999,odd,ì±…ìƒ,artifactual,NA,22739.8972,16432.6265,16432.5808,NA,13838.4886,2882.2141,16432.1404,NA,22024.5414,2930.4788,24456.1441,24456.279,9392.6066,22230.8771,NA,22844.7771,22014.982,Extended template,0,0.051099923,3,yes,1024
0,0,0.016799982,0.016799982,white,yes,psycho,psycho,psycho,0,uniform,0,undefined,0,n,1,0,6,1,1,0,0,0,0,NA,6,0,6,6,0,6,1,6,6,Sun Dec  3 01:03:01 2023,A template containing a practice and an experimental phase,yes,?¸ì–´?™ê³¼?¬ë¦¬?¤í—˜_Bì¡?ê¸°ë§ê³¼ì œ?©ì‹¬ë¦¬ì‹¤??osexp,E:\2023?„ë„ 1?™ê¸°\?¸ì–´?™ê³¼?¬ë¦¬?¤í—˜,no,mono,no,18,no,black,no,no,768,psycho,3,3,0,E:\2023?„ë„ 1?™ê¸°\?¸ì–´?™ê³¼?¬ë¦¬?¤í—˜\quickrun.csv,psycho,Lentiform Loewenfeld,3.3.14,no,?¸ë•,natural,no-correlation,0,None,NA,a,NA,space,None,n,0.016100006,NA,2593.109,NA,6461.0581,0.016100006,669.8378,2,psycho,1024,2,48000,-16,experiment,999,odd,"ê³ ì–‘??,natural""",NA,25260.4928,16432.6265,16432.5808,NA,13838.4886,2882.2141,16432.1404,NA,24545.0712,2930.4788,26036.0694,26036.1757,9392.6066,24751.7027,NA,25365.6307,24532.6163,Extended template,0,0.06719993,4,yes,1024,
0,0,0.016759988,0.016759988,white,yes,psycho,psycho,psycho,0,uniform,0,undefined,0,n,1,0,7,1,1,0,0,0,0,NA,7,0,7,7,0,7,1,7,7,Sun Dec  3 01:03:01 2023,A template containing a practice and an experimental phase,yes,?¸ì–´?™ê³¼?¬ë¦¬?¤í—˜_Bì¡?ê¸°ë§ê³¼ì œ?©ì‹¬ë¦¬ì‹¤??osexp,E:\2023?„ë„ 1?™ê¸°\?¸ì–´?™ê³¼?¬ë¦¬?¤í—˜,no,mono,no,18,no,black,no,no,768,psycho,4,4,0,E:\2023?„ë„ 1?™ê¸°\?¸ì–´?™ê³¼?¬ë¦¬?¤í—˜\quickrun.csv,psycho,Lentiform Loewenfeld,3.3.14,no,?°ì‚°,artifactual,similar-environmental,0,None,NA,a,NA,space,None,n,0.01660001,NA,2593.109,NA,6461.0581,0.01660001,609.8713999,2,psycho,1024,2,48000,-16,experiment,999,odd,"ë¹?,natural""",NA,26832.9423,16432.6265,16432.5808,NA,13838.4886,2882.2141,16432.1404,NA,26117.4749,2930.4788,27548.1301,27548.2443,9392.6066,26323.7686,NA,26937.7034,26107.6973,Extended template,0,0.08379994,5,yes,1024,
0,0,0.016533323,0.016533323,white,yes,psycho,psycho,psycho,0,uniform,0,undefined,0,n,1,0,8,1,1,0,0,0,0,NA,8,0,8,8,0,8,1,8,8,Sun Dec  3 01:03:01 2023,A template containing a practice and an experimental phase,yes,?¸ì–´?™ê³¼?¬ë¦¬?¤í—˜_Bì¡?ê¸°ë§ê³¼ì œ?©ì‹¬ë¦¬ì‹¤??osexp,E:\2023?„ë„ 1?™ê¸°\?¸ì–´?™ê³¼?¬ë¦¬?¤í—˜,no,mono,no,18,no,black,no,no,768,psycho,5,5,0,E:\2023?„ë„ 1?™ê¸°\?¸ì–´?™ê³¼?¬ë¦¬?¤í—˜\quickrun.csv,psycho,Lentiform Loewenfeld,3.3.14,no,?´ë§ˆ,natural,same phoneme,0,None,NA,a,NA,space,None,n,0.015400001,NA,2593.109,NA,6461.0581,0.015400001,2213.042,2,psycho,1024,2,48000,-16,experiment,999,odd,"?´ì§ˆ??,natural""",NA,28355.1189,16432.6265,16432.5808,NA,13838.4886,2882.2141,16432.1404,NA,27639.7194,2930.4788,30676.1547,30676.2745,9392.6066,27846.5346,NA,28462.5531,27624.6263,Extended template,0,0.09919994,6,yes,1024,
0,0,0.016457135,0.016457135,white,yes,psycho,psycho,psycho,0,uniform,0,undefined,0,a,1,0,9,1,1,0,0,0,0,NA,9,0,9,9,0,9,1,9,9,Sun Dec  3 01:03:01 2023,A template containing a practice and an experimental phase,yes,?¸ì–´?™ê³¼?¬ë¦¬?¤í—˜_Bì¡?ê¸°ë§ê³¼ì œ?©ì‹¬ë¦¬ì‹¤??osexp,E:\2023?„ë„ 1?™ê¸°\?¸ì–´?™ê³¼?¬ë¦¬?¤í—˜,no,mono,no,18,no,black,no,no,768,psycho,6,6,0,E:\2023?„ë„ 1?™ê¸°\?¸ì–´?™ê³¼?¬ë¦¬?¤í—˜\quickrun.csv,psycho,Lentiform Loewenfeld,3.3.14,no,"ê½?,natural""",no-correlation,0,None,NA,a,NA,space,None,a,0.016000005,NA,2593.109,NA,6461.0581,0.016000005,1436.2467,2,psycho,1024,2,48000,-16,experiment,999,odd,ê²½ì£¼,artifactual,NA,31482.5589,16432.6265,16432.5808,NA,13838.4886,2882.2141,16432.1404,NA,30764.4896,2930.4788,33024.3181,33024.4401,9392.6066,30970.7938,NA,31587.3401,30750.5105,Extended template,0,0.115199946,7,yes,1024,
0,0,0.016449994,0.016449994,white,yes,psycho,psycho,psycho,0,uniform,0,undefined,0,n,1,0,10,1,1,0,0,0,0,NA,10,0,10,10,0,10,1,10,10,Sun Dec  3 01:03:01 2023,A template containing a practice and an experimental phase,yes,?¸ì–´?™ê³¼?¬ë¦¬?¤í—˜_Bì¡?ê¸°ë§ê³¼ì œ?©ì‹¬ë¦¬ì‹¤??osexp,E:\2023?„ë„ 1?™ê¸°\?¸ì–´?™ê³¼?¬ë¦¬?¤í—˜,no,mono,no,18,no,black,no,no,768,psycho,7,7,0,E:\2023?„ë„ 1?™ê¸°\?¸ì–´?™ê³¼?¬ë¦¬?¤í—˜\quickrun.csv,psycho,Lentiform Loewenfeld,3.3.14,no,ë°”ë‹¤,natural,same phoneme,0,None,NA,a,NA,space,None,n,0.016400008,NA,2593.109,NA,6461.0581,0.016400008,1707.6658,2,psycho,1024,2,48000,-16,experiment,999,odd,"ë°”í€´ë²Œ??,natural""",NA,33823.9182,16432.6265,16432.5808,NA,13838.4886,2882.2141,16432.1404,NA,33113.1664,2930.4788,35644.1975,35644.376,9392.6066,33319.4139,NA,33935.9129,33100.3535,Extended template,0,0.131599954,8,yes,1024,
0,0,0.016566663,0.016566663,white,yes,psycho,psycho,psycho,0,uniform,0,undefined,0,n,1,0,11,1,1,0,0,0,0,NA,11,0,11,11,0,11,1,11,11,Sun Dec  3 01:03:01 2023,A template containing a practice and an experimental phase,yes,?¸ì–´?™ê³¼?¬ë¦¬?¤í—˜_Bì¡?ê¸°ë§ê³¼ì œ?©ì‹¬ë¦¬ì‹¤??osexp,E:\2023?„ë„ 1?™ê¸°\?¸ì–´?™ê³¼?¬ë¦¬?¤í—˜,no,mono,no,18,no,black,no,no,768,psycho,8,8,0,E:\2023?„ë„ 1?™ê¸°\?¸ì–´?™ê³¼?¬ë¦¬?¤í—˜\quickrun.csv,psycho,Lentiform Loewenfeld,3.3.14,no,"ë°¤í•˜??,natural""",no-correlation,0,None,NA,a,NA,space,None,n,0.017500017,NA,2593.109,NA,6461.0581,0.017500017,2405.552,2,psycho,1024,2,48000,-16,experiment,999,odd,ë°”ìœ„,natural,NA,36448.8825,16432.6265,16432.5808,NA,13838.4886,2882.2141,16432.1404,NA,35733.6715,2930.4788,38960.5192,38960.6515,9392.6066,35940.9163,NA,36553.9567,35719.5996,Extended template,0,0.149099971,9,yes,1024,
0,0,0.016439997,0.016439997,white,yes,psycho,psycho,psycho,0,uniform,0,undefined,0,a,1,0,12,1,1,0,0,0,0,NA,12,0,12,12,0,12,1,12,12,Sun Dec  3 01:03:01 2023,A template containing a practice and an experimental phase,yes,?¸ì–´?™ê³¼?¬ë¦¬?¤í—˜_Bì¡?ê¸°ë§ê³¼ì œ?©ì‹¬ë¦¬ì‹¤??osexp,E:\2023?„ë„ 1?™ê¸°\?¸ì–´?™ê³¼?¬ë¦¬?¤í—˜,no,mono,no,18,no,black,no,no,768,psycho,9,9,0,E:\2023?„ë„ 1?™ê¸°\?¸ì–´?™ê³¼?¬ë¦¬?¤í—˜\quickrun.csv,psycho,Lentiform Loewenfeld,3.3.14,no,?…ì–´,natural,same phoneme,0,None,NA,a,NA,space,None,a,0.0153,NA,2593.109,NA,6461.0581,0.0153,1447.9755,2,psycho,1024,2,48000,-16,experiment,999,odd,?…ê¸°,artifactual,NA,39767.8876,16432.6265,16432.5808,NA,13838.4886,2882.2141,16432.1404,NA,39052.6282,2930.4788,41324.1411,41324.2771,9392.6066,39258.7653,NA,39875.4986,39038.8796,Extended template,0,0.164399971,10,yes,1024
0,0,0.016309088,0.016309088,white,yes,psycho,psycho,psycho,0,uniform,0,undefined,0,n,1,0,13,1,1,0,0,0,0,NA,13,0,13,13,0,13,1,13,13,Sun Dec  3 01:03:01 2023,A template containing a practice and an experimental phase,yes,?¸ì–´?™ê³¼?¬ë¦¬?¤í—˜_Bì¡?ê¸°ë§ê³¼ì œ?©ì‹¬ë¦¬ì‹¤??osexp,E:\2023?„ë„ 1?™ê¸°\?¸ì–´?™ê³¼?¬ë¦¬?¤í—˜,no,mono,no,18,no,black,no,no,768,psycho,10,10,0,E:\2023?„ë„ 1?™ê¸°\?¸ì–´?™ê³¼?¬ë¦¬?¤í—˜\quickrun.csv,psycho,Lentiform Loewenfeld,3.3.14,no,ë°•ì¥,natural,similar-environmental,0,None,NA,a,NA,space,None,n,0.014999998,NA,2593.109,NA,6461.0581,0.014999998,1708.1207,2,psycho,1024,2,48000,-16,experiment,999,odd,?™êµ´,natural,NA,42130.2809,16432.6265,16432.5808,NA,13838.4886,2882.2141,16432.1404,NA,41415.2549,2930.4788,43944.1507,43944.2894,9392.6066,41621.5983,NA,42235.4549,41399.8644,Extended template,0,0.179399969,11,yes,1024
0,0,0.016299998,0.016299998,white,yes,psycho,psycho,psycho,0,uniform,0,undefined,0,n,1,0,14,1,1,0,0,0,0,NA,14,0,14,14,0,14,1,14,14,Sun Dec  3 01:03:01 2023,A template containing a practice and an experimental phase,yes,?¸ì–´?™ê³¼?¬ë¦¬?¤í—˜_Bì¡?ê¸°ë§ê³¼ì œ?©ì‹¬ë¦¬ì‹¤??osexp,E:\2023?„ë„ 1?™ê¸°\?¸ì–´?™ê³¼?¬ë¦¬?¤í—˜,no,mono,no,18,no,black,no,no,768,psycho,11,11,0,E:\2023?„ë„ 1?™ê¸°\?¸ì–´?™ê³¼?¬ë¦¬?¤í—˜\quickrun.csv,psycho,Lentiform Loewenfeld,3.3.14,no,ê²½ì£¼,artifactual,no-correlation,0,None,NA,a,NA,space,None,n,0.016200007,NA,2593.109,NA,6461.0581,0.016200007,1175.1569,2,psycho,1024,2,48000,-16,experiment,999,odd,"?Œë‚˜ë¬?,natural""",NA,44750.9068,16432.6265,16432.5808,NA,13838.4886,2882.2141,16432.1404,NA,44035.6172,2930.4788,46032.0704,46032.2159,9392.6066,44242.2617,NA,44856.3083,44020.7943,Extended template,0,0.195599976,12,yes,1024,
0,0,0.016223075,0.016223075,white,yes,psycho,psycho,psycho,0,uniform,0,undefined,0,n,1,0,15,1,1,0,0,0,0,NA,15,0,15,15,0,15,1,15,15,Sun Dec  3 01:03:01 2023,A template containing a practice and an experimental phase,yes,?¸ì–´?™ê³¼?¬ë¦¬?¤í—˜_Bì¡?ê¸°ë§ê³¼ì œ?©ì‹¬ë¦¬ì‹¤??osexp,E:\2023?„ë„ 1?™ê¸°\?¸ì–´?™ê³¼?¬ë¦¬?¤í—˜,no,mono,no,18,no,black,no,no,768,psycho,12,12,0,E:\2023?„ë„ 1?™ê¸°\?¸ì–´?™ê³¼?¬ë¦¬?¤í—˜\quickrun.csv,psycho,Lentiform Loewenfeld,3.3.14,no,?¼ìŒ,natural,no-correlation,0,None,NA,a,NA,space,None,n,0.0153,NA,2593.109,NA,6461.0581,0.0153,612.8705001,2,psycho,1024,2,48000,-16,experiment,999,odd,"??,natural""",NA,46827.2794,16432.6265,16432.5808,NA,13838.4886,2882.2141,16432.1404,NA,46115.2962,2930.4788,47552.0139,47552.1617,9392.6066,46322.942,NA,46938.5814,46106.6099,Extended template,0,0.210899976,13,yes,1024,
0,0,0.016142855,0.016142855,white,yes,psycho,psycho,psycho,0,uniform,0,undefined,0,n,1,0,16,1,1,0,0,0,0,NA,16,0,16,16,0,16,1,16,16,Sun Dec  3 01:03:01 2023,A template containing a practice and an experimental phase,yes,?¸ì–´?™ê³¼?¬ë¦¬?¤í—˜_Bì¡?ê¸°ë§ê³¼ì œ?©ì‹¬ë¦¬ì‹¤??osexp,E:\2023?„ë„ 1?™ê¸°\?¸ì–´?™ê³¼?¬ë¦¬?¤í—˜,no,mono,no,18,no,black,no,no,768,psycho,13,13,0,E:\2023?„ë„ 1?™ê¸°\?¸ì–´?™ê³¼?¬ë¦¬?¤í—˜\quickrun.csv,psycho,Lentiform Loewenfeld,3.3.14,no,ë³´íŠ¸,artifactual,same phoneme,0,None,NA,a,NA,space,None,n,0.015099999,NA,2593.109,NA,6461.0581,0.015099999,817.5945,2,psycho,1024,2,48000,-16,experiment,999,odd,"ë³´ë¦„??,natural""",NA,48352.6303,16432.6265,16432.5808,NA,13838.4886,2882.2141,16432.1404,NA,47637.6441,2930.4788,49276.1681,49276.3192,9392.6066,47843.8874,NA,48457.9697,47627.6542,Extended template,0,0.225999975,14,yes,1024,
0,0,0.016059998,0.016059998,white,yes,psycho,psycho,psycho,0,uniform,0,undefined,0,n,1,0,17,1,1,0,0,0,0,NA,17,0,17,17,0,17,1,17,17,Sun Dec  3 01:03:01 2023,A template containing a practice and an experimental phase,yes,?¸ì–´?™ê³¼?¬ë¦¬?¤í—˜_Bì¡?ê¸°ë§ê³¼ì œ?©ì‹¬ë¦¬ì‹¤??osexp,E:\2023?„ë„ 1?™ê¸°\?¸ì–´?™ê³¼?¬ë¦¬?¤í—˜,no,mono,no,18,no,black,no,no,768,psycho,14,14,0,E:\2023?„ë„ 1?™ê¸°\?¸ì–´?™ê³¼?¬ë¦¬?¤í—˜\quickrun.csv,psycho,Lentiform Loewenfeld,3.3.14,no,ê³¡ë¬¼,natural,inclusive,0,None,NA,a,NA,space,None,n,0.014899997,NA,2593.109,NA,6461.0581,0.014899997,977.8476,2,psycho,1024,2,48000,-16,experiment,999,odd,ë°€,natural,NA,50074.6348,16432.6265,16432.5808,NA,13838.4886,2882.2141,16432.1404,NA,49359.5092,2930.4788,51160.084,51160.2401,9392.6066,49565.748,NA,50181.7046,49351.6839,Extended template,0,0.240899972,15,yes,1024
0,0,0.016087499,0.016087499,white,yes,psycho,psycho,psycho,0,uniform,0,undefined,0,n,1,0,18,1,1,0,0,0,0,NA,18,0,18,18,0,18,1,18,18,Sun Dec  3 01:03:01 2023,A template containing a practice and an experimental phase,yes,?¸ì–´?™ê³¼?¬ë¦¬?¤í—˜_Bì¡?ê¸°ë§ê³¼ì œ?©ì‹¬ë¦¬ì‹¤??osexp,E:\2023?„ë„ 1?™ê¸°\?¸ì–´?™ê³¼?¬ë¦¬?¤í—˜,no,mono,no,18,no,black,no,no,768,psycho,15,15,0,E:\2023?„ë„ 1?™ê¸°\?¸ì–´?™ê³¼?¬ë¦¬?¤í—˜\quickrun.csv,psycho,Lentiform Loewenfeld,3.3.14,no,?¸ê¸ˆ,artifactual,same phoneme,0,None,NA,a,NA,space,None,n,0.016500009,NA,2593.109,NA,6461.0581,0.016500009,851.0531001,2,psycho,1024,2,48000,-16,experiment,999,odd,?¸í¬,natural,NA,51963.2652,16432.6265,16432.5808,NA,13838.4886,2882.2141,16432.1404,NA,51247.6474,2930.4788,52920.2025,52920.3644,9392.6066,51453.8903,NA,52068.3974,51237.5225,Extended template,0,0.257399981,16,yes,1024
0,0,0.016047058,0.016047058,white,yes,psycho,psycho,psycho,0,uniform,0,undefined,0,n,1,0,19,1,1,0,0,0,0,NA,19,0,19,19,0,19,1,19,19,Sun Dec  3 01:03:01 2023,A template containing a practice and an experimental phase,yes,?¸ì–´?™ê³¼?¬ë¦¬?¤í—˜_Bì¡?ê¸°ë§ê³¼ì œ?©ì‹¬ë¦¬ì‹¤??osexp,E:\2023?„ë„ 1?™ê¸°\?¸ì–´?™ê³¼?¬ë¦¬?¤í—˜,no,mono,no,18,no,black,no,no,768,psycho,16,16,0,E:\2023?„ë„ 1?™ê¸°\?¸ì–´?™ê³¼?¬ë¦¬?¤í—˜\quickrun.csv,psycho,Lentiform Loewenfeld,3.3.14,no,?¤ì¼,natural,same phoneme,0,None,NA,a,NA,space,None,n,0.015400001,NA,2593.109,NA,6461.0581,0.015400001,767.6543,2,psycho,1024,2,48000,-16,experiment,999,odd,?¤ë¦¬,natural,NA,53734.7541,16432.6265,16432.5808,NA,13838.4886,2882.2141,16432.1404,NA,53019.8041,2930.4788,54608.2056,54608.3696,9392.6066,53225.8596,NA,53839.9006,53006.9409,Extended template,0,0.272799982,17,yes,1024
0,0,0.016027777,0.016027777,white,yes,psycho,psycho,psycho,0,uniform,0,undefined,0,x,1,0,20,1,1,0,0,0,0,NA,20,0,20,20,0,20,1,20,20,Sun Dec  3 01:03:01 2023,A template containing a practice and an experimental phase,yes,?¸ì–´?™ê³¼?¬ë¦¬?¤í—˜_Bì¡?ê¸°ë§ê³¼ì œ?©ì‹¬ë¦¬ì‹¤??osexp,E:\2023?„ë„ 1?™ê¸°\?¸ì–´?™ê³¼?¬ë¦¬?¤í—˜,no,mono,no,18,no,black,no,no,768,psycho,17,17,0,E:\2023?„ë„ 1?™ê¸°\?¸ì–´?™ê³¼?¬ë¦¬?¤í—˜\quickrun.csv,psycho,Lentiform Loewenfeld,3.3.14,no,?œê³„,artifactual,non-word,0,None,NA,a,NA,space,None,x,0.015700003,NA,2593.109,NA,6461.0581,0.015700003,1791.5407,2,psycho,1024,2,48000,-16,experiment,999,odd,ì±…ì†œ,non-word,NA,55406.8768,16432.6265,16432.5808,NA,13838.4886,2882.2141,16432.1404,NA,54691.6806,2930.4788,57304.196,57304.3657,9392.6066,54897.3539,NA,55512.021,54680.5888,Extended template,0,0.288499985,18,yes,1024
0,0,0.016005262,0.016005262,white,yes,psycho,psycho,psycho,0,uniform,0,undefined,0,a,0,0,21,1,1,0,0,0,0,NA,21,0,21,21,0,21,1,21,21,Sun Dec  3 01:03:01 2023,A template containing a practice and an experimental phase,yes,?¸ì–´?™ê³¼?¬ë¦¬?¤í—˜_Bì¡?ê¸°ë§ê³¼ì œ?©ì‹¬ë¦¬ì‹¤??osexp,E:\2023?„ë„ 1?™ê¸°\?¸ì–´?™ê³¼?¬ë¦¬?¤í—˜,no,mono,no,18,no,black,no,no,768,psycho,18,18,0,E:\2023?„ë„ 1?™ê¸°\?¸ì–´?™ê³¼?¬ë¦¬?¤í—˜\quickrun.csv,psycho,Lentiform Loewenfeld,3.3.14,no,ë°”ë‹¤,natural,similar-environmental,0,None,NA,a,NA,space,None,n,0.015600002,NA,2593.109,NA,6461.0581,0.015600002,1921.2376,2,psycho,1024,2,48000,-16,experiment,999,odd,"ë°?,artifactual""",NA,58097.2936,16432.6265,16432.5808,NA,13838.4886,2882.2141,16432.1404,NA,57386.8479,2930.4788,60124.4309,60124.6032,9392.6066,57592.4479,NA,58202.32,57377.1348,Extended template,0,0.304099987,19,yes,1024,
0,0,0.015984999,0.015984999,white,yes,psycho,psycho,psycho,0,uniform,0,undefined,0,a,1,0,22,1,1,0,0,0,0,NA,22,0,22,22,0,22,1,22,22,Sun Dec  3 01:03:01 2023,A template containing a practice and an experimental phase,yes,?¸ì–´?™ê³¼?¬ë¦¬?¤í—˜_Bì¡?ê¸°ë§ê³¼ì œ?©ì‹¬ë¦¬ì‹¤??osexp,E:\2023?„ë„ 1?™ê¸°\?¸ì–´?™ê³¼?¬ë¦¬?¤í—˜,no,mono,no,18,no,black,no,no,768,psycho,19,19,0,E:\2023?„ë„ 1?™ê¸°\?¸ì–´?™ê³¼?¬ë¦¬?¤í—˜\quickrun.csv,psycho,Lentiform Loewenfeld,3.3.14,no,"?„ë???,artifactual""",same phoneme,0,None,NA,a,NA,space,None,a,0.015600002,NA,2593.109,NA,6461.0581,0.015600002,7528.324,2,psycho,1024,2,48000,-16,experiment,999,odd,?„ì„œ,artifactual,NA,60930.594,16432.6265,16432.5808,NA,13838.4886,2882.2141,16432.1404,NA,60215.3589,2930.4788,68568.096,68568.2748,9392.6066,60421.5661,NA,61039.1168,60202.1785,Extended template,0,0.31969999,20,yes,1024,
0,0,0.015985714,0.015985714,white,yes,psycho,psycho,psycho,0,uniform,0,undefined,0,a,1,0,23,1,1,0,0,0,0,NA,23,0,23,23,0,23,1,23,23,Sun Dec  3 01:03:01 2023,A template containing a practice and an experimental phase,yes,?¸ì–´?™ê³¼?¬ë¦¬?¤í—˜_Bì¡?ê¸°ë§ê³¼ì œ?©ì‹¬ë¦¬ì‹¤??osexp,E:\2023?„ë„ 1?™ê¸°\?¸ì–´?™ê³¼?¬ë¦¬?¤í—˜,no,mono,no,18,no,black,no,no,768,psycho,20,20,0,E:\2023?„ë„ 1?™ê¸°\?¸ì–´?™ê³¼?¬ë¦¬?¤í—˜\quickrun.csv,psycho,Lentiform Loewenfeld,3.3.14,no,ë°”ëŒ,natural,no-correlation,0,None,NA,a,NA,space,None,a,0.016000005,NA,2593.109,NA,6461.0581,0.016000005,3136.3278,2,psycho,1024,2,48000,-16,experiment,999,odd,ë²„ìŠ¤,artifactual,NA,69373.8624,16432.6265,16432.5808,NA,13838.4886,2882.2141,16432.1404,NA,68658.6826,2930.4788,72616.3157,72616.499,9392.6066,68865.0552,NA,69479.2111,68643.8592,Extended template,0,0.335699995,21,yes,1024
0,0,0.015968182,0.015968182,white,yes,psycho,psycho,psycho,0,uniform,0,undefined,0,a,1,0,24,1,1,0,0,0,0,NA,24,0,24,24,0,24,1,24,24,Sun Dec  3 01:03:01 2023,A template containing a practice and an experimental phase,yes,?¸ì–´?™ê³¼?¬ë¦¬?¤í—˜_Bì¡?ê¸°ë§ê³¼ì œ?©ì‹¬ë¦¬ì‹¤??osexp,E:\2023?„ë„ 1?™ê¸°\?¸ì–´?™ê³¼?¬ë¦¬?¤í—˜,no,mono,no,18,no,black,no,no,768,psycho,21,21,0,E:\2023?„ë„ 1?™ê¸°\?¸ì–´?™ê³¼?¬ë¦¬?¤í—˜\quickrun.csv,psycho,Lentiform Loewenfeld,3.3.14,no,"??,artifactual""",inclusive,0,None,NA,a,NA,space,None,a,0.015600002,NA,2593.109,NA,6461.0581,0.015600002,710.3368001,2,psycho,1024,2,48000,-16,experiment,999,odd,ì½”íŠ¸,artifactual,NA,73416.5124,16432.6265,16432.5808,NA,13838.4886,2882.2141,16432.1404,NA,72701.4634,2930.4788,74232.2168,74232.4057,9392.6066,72907.4494,NA,73521.2134,72690.7829,Extended template,0,0.351299997,22,yes,1024,
0,0,0.016004348,0.016004348,white,yes,psycho,psycho,psycho,0,uniform,0,undefined,0,a,1,0,25,1,1,0,0,0,0,NA,25,0,25,25,0,25,1,25,25,Sun Dec  3 01:03:01 2023,A template containing a practice and an experimental phase,yes,?¸ì–´?™ê³¼?¬ë¦¬?¤í—˜_Bì¡?ê¸°ë§ê³¼ì œ?©ì‹¬ë¦¬ì‹¤??osexp,E:\2023?„ë„ 1?™ê¸°\?¸ì–´?™ê³¼?¬ë¦¬?¤í—˜,no,mono,no,18,no,black,no,no,768,psycho,22,22,0,E:\2023?„ë„ 1?™ê¸°\?¸ì–´?™ê³¼?¬ë¦¬?¤í—˜\quickrun.csv,psycho,Lentiform Loewenfeld,3.3.14,no,"ë§ˆìš°??,artifactual""",no-correlation,0,None,NA,a,NA,space,None,a,0.016800012,NA,2593.109,NA,6461.0581,0.016800012,1011.7918,2,psycho,1024,2,48000,-16,experiment,999,odd,ëª¨ì,artifactual,NA,75030.3208,16432.6265,16432.5808,NA,13838.4886,2882.2141,16432.1404,NA,74315.0488,2930.4788,76148.1949,76148.397,9392.6066,74521.1213,NA,75135.7397,74304.1368,Extended template,0,0.368100009,23,yes,1024,
0,0,0.016000001,0.016000001,white,yes,psycho,psycho,psycho,0,uniform,0,undefined,0,n,1,0,26,1,1,0,0,0,0,NA,26,0,26,26,0,26,1,26,26,Sun Dec  3 01:03:01 2023,A template containing a practice and an experimental phase,yes,?¸ì–´?™ê³¼?¬ë¦¬?¤í—˜_Bì¡?ê¸°ë§ê³¼ì œ?©ì‹¬ë¦¬ì‹¤??osexp,E:\2023?„ë„ 1?™ê¸°\?¸ì–´?™ê³¼?¬ë¦¬?¤í—˜,no,mono,no,18,no,black,no,no,768,psycho,23,23,0,E:\2023?„ë„ 1?™ê¸°\?¸ì–´?™ê³¼?¬ë¦¬?¤í—˜\quickrun.csv,psycho,Lentiform Loewenfeld,3.3.14,no,ë°”ë‹¥,artifactual,same phoneme,0,None,NA,a,NA,space,None,n,0.015900005,NA,2593.109,NA,6461.0581,0.015900005,3114.4238,2,psycho,1024,2,48000,-16,experiment,999,odd,ë°”ë‹¤,natural,NA,76960.0628,16432.6265,16432.5808,NA,13838.4886,2882.2141,16432.1404,NA,76245.1715,2930.4788,80180.131,80180.3265,9392.6066,76452.2688,NA,77065.0462,76235.9113,Extended template,0,0.384000014,24,yes,1024
0,0,0.016120002,0.016120002,white,yes,psycho,psycho,psycho,0,uniform,0,undefined,0,n,0,0,27,1,1,0,0,0,0,NA,27,0,27,27,0,27,1,27,27,Sun Dec  3 01:03:01 2023,A template containing a practice and an experimental phase,yes,?¸ì–´?™ê³¼?¬ë¦¬?¤í—˜_Bì¡?ê¸°ë§ê³¼ì œ?©ì‹¬ë¦¬ì‹¤??osexp,E:\2023?„ë„ 1?™ê¸°\?¸ì–´?™ê³¼?¬ë¦¬?¤í—˜,no,mono,no,18,no,black,no,no,768,psycho,24,24,0,E:\2023?„ë„ 1?™ê¸°\?¸ì–´?™ê³¼?¬ë¦¬?¤í—˜\quickrun.csv,psycho,Lentiform Loewenfeld,3.3.14,no,"??,artifactual""",same phoneme,0,None,NA,a,NA,space,None,a,0.019000028,NA,2593.109,NA,6461.0581,0.019000028,783.0427,2,psycho,1024,2,48000,-16,experiment,999,odd,?¬ë ¥,natural,NA,80994.8132,16432.6265,16432.5808,NA,13838.4886,2882.2141,16432.1404,NA,80279.5791,2930.4788,81884.19,81884.3938,9392.6066,80485.7644,NA,81100.4745,80264.5296,Extended template,0,0.403000042,25,yes,1024,
0,0,0.016096156,0.016096156,white,yes,psycho,psycho,psycho,0,uniform,0,undefined,0,a,1,0,28,1,1,0,0,0,0,NA,28,0,28,28,0,28,1,28,28,Sun Dec  3 01:03:01 2023,A template containing a practice and an experimental phase,yes,?¸ì–´?™ê³¼?¬ë¦¬?¤í—˜_Bì¡?ê¸°ë§ê³¼ì œ?©ì‹¬ë¦¬ì‹¤??osexp,E:\2023?„ë„ 1?™ê¸°\?¸ì–´?™ê³¼?¬ë¦¬?¤í—˜,no,mono,no,18,no,black,no,no,768,psycho,25,25,0,E:\2023?„ë„ 1?™ê¸°\?¸ì–´?™ê³¼?¬ë¦¬?¤í—˜\quickrun.csv,psycho,Lentiform Loewenfeld,3.3.14,no,?´ë?,natural,similar-environmental,0,None,NA,a,NA,space,None,a,0.015500002,NA,2593.109,NA,6461.0581,0.015500002,1436.0873,2,psycho,1024,2,48000,-16,experiment,999,odd,"?Œë¼??,artifactual""",NA,82683.4649,16432.6265,16432.5808,NA,13838.4886,2882.2141,16432.1404,NA,81968.0892,2930.4788,84228.2843,84228.4925,9392.6066,82174.583,NA,82791.4475,81958.2564,Extended template,0,0.418500043,26,yes,1024,
0,0,0.016096298,0.016096298,white,yes,psycho,psycho,psycho,0,uniform,0,undefined,0,x,1,0,29,1,1,0,0,0,0,NA,29,0,29,29,0,29,1,29,29,Sun Dec  3 01:03:01 2023,A template containing a practice and an experimental phase,yes,?¸ì–´?™ê³¼?¬ë¦¬?¤í—˜_Bì¡?ê¸°ë§ê³¼ì œ?©ì‹¬ë¦¬ì‹¤??osexp,E:\2023?„ë„ 1?™ê¸°\?¸ì–´?™ê³¼?¬ë¦¬?¤í—˜,no,mono,no,18,no,black,no,no,768,psycho,26,26,0,E:\2023?„ë„ 1?™ê¸°\?¸ì–´?™ê³¼?¬ë¦¬?¤í—˜\quickrun.csv,psycho,Lentiform Loewenfeld,3.3.14,no,?ˆë²½,natural,non-word,0,None,NA,a,NA,space,None,x,0.016100006,NA,2593.109,NA,6461.0581,0.016100006,1076.4471,2,psycho,1024,2,48000,-16,experiment,999,odd,"ë¬¼ë¡œ??,non-word""",NA,85045.9022,16432.6265,16432.5808,NA,13838.4886,2882.2141,16432.1404,NA,84330.7378,2930.4788,86228.3456,86228.5546,9392.6066,84537.1117,NA,85151.08,84316.4243,Extended template,0,0.43460005,27,yes,1024,
0,0,0.016217856,0.016217856,white,yes,psycho,psycho,psycho,0,uniform,0,undefined,0,a,1,0,30,1,1,0,0,0,0,NA,30,0,30,30,0,30,1,30,30,Sun Dec  3 01:03:01 2023,A template containing a practice and an experimental phase,yes,?¸ì–´?™ê³¼?¬ë¦¬?¤í—˜_Bì¡?ê¸°ë§ê³¼ì œ?©ì‹¬ë¦¬ì‹¤??osexp,E:\2023?„ë„ 1?™ê¸°\?¸ì–´?™ê³¼?¬ë¦¬?¤í—˜,no,mono,no,18,no,black,no,no,768,psycho,27,27,0,E:\2023?„ë„ 1?™ê¸°\?¸ì–´?™ê³¼?¬ë¦¬?¤í—˜\quickrun.csv,psycho,Lentiform Loewenfeld,3.3.14,no,"ì¹´ë©”??,artifactual""",inclusive,0,None,NA,a,NA,space,None,a,0.019499916,NA,2593.109,NA,6461.0581,0.019499916,2494.0819,2,psycho,1024,2,48000,-16,experiment,999,odd,?Œì¦ˆ,artifactual,NA,87042.4744,16432.6265,16432.5808,NA,13838.4886,2882.2141,16432.1404,NA,86327.126,2930.4788,89644.267,89644.4889,9392.6066,86533.1571,NA,87149.4455,86303.9114,Extended template,0,0.454099965,28,yes,1024,
0,0,0.016203447,0.016203447,white,yes,psycho,psycho,psycho,0,uniform,0,undefined,0,a,1,0,31,1,1,0,0,0,0,NA,31,0,31,31,0,31,1,31,31,Sun Dec  3 01:03:01 2023,A template containing a practice and an experimental phase,yes,?¸ì–´?™ê³¼?¬ë¦¬?¤í—˜_Bì¡?ê¸°ë§ê³¼ì œ?©ì‹¬ë¦¬ì‹¤??osexp,E:\2023?„ë„ 1?™ê¸°\?¸ì–´?™ê³¼?¬ë¦¬?¤í—˜,no,mono,no,18,no,black,no,no,768,psycho,28,28,0,E:\2023?„ë„ 1?™ê¸°\?¸ì–´?™ê³¼?¬ë¦¬?¤í—˜\quickrun.csv,psycho,Lentiform Loewenfeld,3.3.14,no,êµí†µ,artifactual,inclusive,0,None,NA,a,NA,space,None,a,0.015800004,NA,2593.109,NA,6461.0581,0.015800004,545.6959,2,psycho,1024,2,48000,-16,experiment,999,odd,"?ë™ì°?,artifactual""",NA,90444.8441,16432.6265,16432.5808,NA,13838.4886,2882.2141,16432.1404,NA,89729.441,2930.4788,91096.7192,91096.941,9392.6066,89935.969,NA,90549.8195,89719.2297,Extended template,0,0.469899969,29,yes,1024,
0,0,0.016223333,0.016223333,white,yes,psycho,psycho,psycho,0,uniform,0,undefined,0,n,1,0,32,1,1,0,0,0,0,NA,32,0,32,32,0,32,1,32,32,Sun Dec  3 01:03:01 2023,A template containing a practice and an experimental phase,yes,?¸ì–´?™ê³¼?¬ë¦¬?¤í—˜_Bì¡?ê¸°ë§ê³¼ì œ?©ì‹¬ë¦¬ì‹¤??osexp,E:\2023?„ë„ 1?™ê¸°\?¸ì–´?™ê³¼?¬ë¦¬?¤í—˜,no,mono,no,18,no,black,no,no,768,psycho,29,29,0,E:\2023?„ë„ 1?™ê¸°\?¸ì–´?™ê³¼?¬ë¦¬?¤í—˜\quickrun.csv,psycho,Lentiform Loewenfeld,3.3.14,no,?¸ìˆ˜,natural,no-correlation,0,None,NA,a,NA,space,None,n,0.016800012,NA,2593.109,NA,6461.0581,0.016800012,827.8087999,2,psycho,1024,2,48000,-16,experiment,999,odd,"?Œë‚˜ë¬?,natural""",NA,91908.664,16432.6265,16432.5808,NA,13838.4886,2882.2141,16432.1404,NA,91185.1493,2930.4788,92844.3198,92844.5421,9392.6066,91400.9239,NA,92015.7212,91173.3426,Extended template,0,0.486699981,30,yes,1024,
0,0,0.016212903,0.016212903,white,yes,psycho,psycho,psycho,0,uniform,0,undefined,0,n,1,0,33,1,1,0,0,0,0,NA,33,0,33,33,0,33,1,33,33,Sun Dec  3 01:03:01 2023,A template containing a practice and an experimental phase,yes,?¸ì–´?™ê³¼?¬ë¦¬?¤í—˜_Bì¡?ê¸°ë§ê³¼ì œ?©ì‹¬ë¦¬ì‹¤??osexp,E:\2023?„ë„ 1?™ê¸°\?¸ì–´?™ê³¼?¬ë¦¬?¤í—˜,no,mono,no,18,no,black,no,no,768,psycho,30,30,0,E:\2023?„ë„ 1?™ê¸°\?¸ì–´?™ê³¼?¬ë¦¬?¤í—˜\quickrun.csv,psycho,Lentiform Loewenfeld,3.3.14,no,??µ¬,artifactual,similar-environmental,0,None,NA,a,NA,space,None,n,0.015900005,NA,2593.109,NA,6461.0581,0.015900005,559.3409,2,psycho,1024,2,48000,-16,experiment,999,odd,ë°”ë‹¤,natural,NA,93647.3848,16432.6265,16432.5808,NA,13838.4886,2882.2141,16432.1404,NA,92932,2930.4788,94312.2303,94312.457,9392.6066,93138.6281,NA,93752.1991,92920.1931,Extended template,0,0.502599985,31,yes,1024
0,0,0.01620625,0.01620625,white,yes,psycho,psycho,psycho,0,uniform,0,undefined,0,n,1,0,34,1,1,0,0,0,0,NA,34,0,34,34,0,34,1,34,34,Sun Dec  3 01:03:01 2023,A template containing a practice and an experimental phase,yes,?¸ì–´?™ê³¼?¬ë¦¬?¤í—˜_Bì¡?ê¸°ë§ê³¼ì œ?©ì‹¬ë¦¬ì‹¤??osexp,E:\2023?„ë„ 1?™ê¸°\?¸ì–´?™ê³¼?¬ë¦¬?¤í—˜,no,mono,no,18,no,black,no,no,768,psycho,31,31,0,E:\2023?„ë„ 1?™ê¸°\?¸ì–´?™ê³¼?¬ë¦¬?¤í—˜\quickrun.csv,psycho,Lentiform Loewenfeld,3.3.14,no,?…ì–´,natural,similar-environmental,0,None,NA,a,NA,space,None,n,0.016000005,NA,2593.109,NA,6461.0581,0.016000005,594.8109999,2,psycho,1024,2,48000,-16,experiment,999,odd,"??,natural""",NA,95127.8632,16432.6265,16432.5808,NA,13838.4886,2882.2141,16432.1404,NA,94412.6462,2930.4788,95828.4023,95828.634,9392.6066,94618.887,NA,95232.696,94398.6788,Extended template,0,0.518599991,32,yes,1024,
0,0,0.016209091,0.016209091,white,yes,psycho,psycho,psycho,0,uniform,0,undefined,0,n,1,0,35,1,1,0,0,0,0,NA,35,0,35,35,0,35,1,35,35,Sun Dec  3 01:03:01 2023,A template containing a practice and an experimental phase,yes,?¸ì–´?™ê³¼?¬ë¦¬?¤í—˜_Bì¡?ê¸°ë§ê³¼ì œ?©ì‹¬ë¦¬ì‹¤??osexp,E:\2023?„ë„ 1?™ê¸°\?¸ì–´?™ê³¼?¬ë¦¬?¤í—˜,no,mono,no,18,no,black,no,no,768,psycho,32,32,0,E:\2023?„ë„ 1?™ê¸°\?¸ì–´?™ê³¼?¬ë¦¬?¤í—˜\quickrun.csv,psycho,Lentiform Loewenfeld,3.3.14,no,"?œì–‘ê³?,natural""",inclusive,0,None,NA,a,NA,space,None,n,0.016300008,NA,2593.109,NA,6461.0581,0.016300008,488.9251,2,psycho,1024,2,48000,-16,experiment,999,odd,ëª©ì„±,natural,NA,96633.4753,16432.6265,16432.5808,NA,13838.4886,2882.2141,16432.1404,NA,95918.4182,2930.4788,97228.419,97228.6568,9392.6066,96124.4889,NA,96738.5991,95904.1724,Extended template,0,0.534899998,33,yes,1024,
0,0,0.016217647,0.016217647,white,yes,psycho,psycho,psycho,0,uniform,0,undefined,0,a,1,0,36,1,1,0,0,0,0,NA,36,0,36,36,0,36,1,36,36,Sun Dec  3 01:03:01 2023,A template containing a practice and an experimental phase,yes,?¸ì–´?™ê³¼?¬ë¦¬?¤í—˜_Bì¡?ê¸°ë§ê³¼ì œ?©ì‹¬ë¦¬ì‹¤??osexp,E:\2023?„ë„ 1?™ê¸°\?¸ì–´?™ê³¼?¬ë¦¬?¤í—˜,no,mono,no,18,no,black,no,no,768,psycho,33,33,0,E:\2023?„ë„ 1?™ê¸°\?¸ì–´?™ê³¼?¬ë¦¬?¤í—˜\quickrun.csv,psycho,Lentiform Loewenfeld,3.3.14,no,êµ¬ë¦„,natural,same phoneme,0,None,NA,a,NA,space,None,a,0.016500009,NA,2593.109,NA,6461.0581,0.016500009,1230.5515,2,psycho,1024,2,48000,-16,experiment,999,odd,êµ¬ìŠ¬,artifactual,NA,98030.7909,16432.6265,16432.5808,NA,13838.4886,2882.2141,16432.1404,NA,97315.7044,2930.4788,99368.3476,99368.5864,9392.6066,97523.1843,NA,98136.964,97301.7061,Extended template,0,0.551400008,34,yes,1024
0,0,0.016205715,0.016205715,white,yes,psycho,psycho,psycho,0,uniform,0,undefined,0,n,1,0,37,1,1,0,0,0,0,NA,37,0,37,37,0,37,1,37,37,Sun Dec  3 01:03:01 2023,A template containing a practice and an experimental phase,yes,?¸ì–´?™ê³¼?¬ë¦¬?¤í—˜_Bì¡?ê¸°ë§ê³¼ì œ?©ì‹¬ë¦¬ì‹¤??osexp,E:\2023?„ë„ 1?™ê¸°\?¸ì–´?™ê³¼?¬ë¦¬?¤í—˜,no,mono,no,18,no,black,no,no,768,psycho,34,34,0,E:\2023?„ë„ 1?™ê¸°\?¸ì–´?™ê³¼?¬ë¦¬?¤í—˜\quickrun.csv,psycho,Lentiform Loewenfeld,3.3.14,no,"ê½?,natural""",inclusive,0,None,NA,a,NA,space,None,n,0.015800004,NA,2593.109,NA,6461.0581,0.015800004,983.4744,2,psycho,1024,2,48000,-16,experiment,999,odd,?´ë°”?¼ê¸°,natural,NA,100174.4807,16432.6265,16432.5808,NA,13838.4886,2882.2141,16432.1404,NA,99461.8802,2930.4788,101264.3898,101264.6347,9392.6066,99669.0106,NA,100280.0437,99454.6379,Extended template,0,0.567200012,35,yes,1024,
0,0,0.016236112,0.016236112,white,yes,psycho,psycho,psycho,0,uniform,0,undefined,0,n,1,0,38,1,1,0,0,0,0,NA,38,0,38,38,0,38,1,38,38,Sun Dec  3 01:03:01 2023,A template containing a practice and an experimental phase,yes,?¸ì–´?™ê³¼?¬ë¦¬?¤í—˜_Bì¡?ê¸°ë§ê³¼ì œ?©ì‹¬ë¦¬ì‹¤??osexp,E:\2023?„ë„ 1?™ê¸°\?¸ì–´?™ê³¼?¬ë¦¬?¤í—˜,no,mono,no,18,no,black,no,no,768,psycho,35,35,0,E:\2023?„ë„ 1?™ê¸°\?¸ì–´?™ê³¼?¬ë¦¬?¤í—˜\quickrun.csv,psycho,Lentiform Loewenfeld,3.3.14,no,?™êµ´,natural,similar-environmental,0,None,NA,a,NA,space,None,n,0.017300015,NA,2593.109,NA,6461.0581,0.017300015,677.1623,2,psycho,1024,2,48000,-16,experiment,999,odd,ë°•ì¥,natural,NA,102065.679,16432.6265,16432.5808,NA,13838.4886,2882.2141,16432.1404,NA,101350.2762,2930.4788,102848.2734,102848.525,9392.6066,101556.9657,NA,102170.371,101342.6502,Extended template,0,0.584500027,36,yes,1024
0,0,0.016216217,0.016216217,white,yes,psycho,psycho,psycho,0,uniform,0,undefined,0,a,1,0,39,1,1,0,0,0,0,NA,39,0,39,39,0,39,1,39,39,Sun Dec  3 01:03:01 2023,A template containing a practice and an experimental phase,yes,?¸ì–´?™ê³¼?¬ë¦¬?¤í—˜_Bì¡?ê¸°ë§ê³¼ì œ?©ì‹¬ë¦¬ì‹¤??osexp,E:\2023?„ë„ 1?™ê¸°\?¸ì–´?™ê³¼?¬ë¦¬?¤í—˜,no,mono,no,18,no,black,no,no,768,psycho,36,36,0,E:\2023?„ë„ 1?™ê¸°\?¸ì–´?™ê³¼?¬ë¦¬?¤í—˜\quickrun.csv,psycho,Lentiform Loewenfeld,3.3.14,no,"ê°€ë°?,artifactual""",no-correlation,0,None,NA,a,NA,space,None,a,0.015500002,NA,2593.109,NA,6461.0581,0.015500002,788.1404,2,psycho,1024,2,48000,-16,experiment,999,odd,ê¸°ì°¨,artifactual,NA,103654.3288,16432.6265,16432.5808,NA,13838.4886,2882.2141,16432.1404,NA,102939.3842,2930.4788,104548.2214,104548.4707,9392.6066,103145.4163,NA,103759.3568,102924.6895,Extended template,0,0.600000028,37,yes,1024,
0,0,0.016436842,0.016436842,white,yes,psycho,psycho,psycho,0,uniform,0,undefined,0,n,1,0,40,1,1,0,0,0,0,NA,40,0,40,40,0,40,1,40,40,Sun Dec  3 01:03:01 2023,A template containing a practice and an experimental phase,yes,?¸ì–´?™ê³¼?¬ë¦¬?¤í—˜_Bì¡?ê¸°ë§ê³¼ì œ?©ì‹¬ë¦¬ì‹¤??osexp,E:\2023?„ë„ 1?™ê¸°\?¸ì–´?™ê³¼?¬ë¦¬?¤í—˜,no,mono,no,18,no,black,no,no,768,psycho,37,37,0,E:\2023?„ë„ 1?™ê¸°\?¸ì–´?™ê³¼?¬ë¦¬?¤í—˜\quickrun.csv,psycho,Lentiform Loewenfeld,3.3.14,no,"ë¬¼ê³ ê¸?,natural""",no-correlation,0,None,NA,a,NA,space,None,n,0.024599954,NA,2593.109,NA,6461.0581,0.024599954,958.9152,2,psycho,1024,2,48000,-16,experiment,999,odd,"ë°¤í•˜??,natural""",NA,105351.2699,16432.6265,16432.5808,NA,13838.4886,2882.2141,16432.1404,NA,104636.1612,2930.4788,106416.3149,106416.6325,9392.6066,104842.5279,NA,105456.5379,104621.8041,Extended template,0,0.624599983,38,yes,1024,,
0,0,0.016435897,0.016435897,white,yes,psycho,psycho,psycho,0,uniform,0,undefined,0,n,1,0,41,1,1,0,0,0,0,NA,41,0,41,41,0,41,1,41,41,Sun Dec  3 01:03:01 2023,A template containing a practice and an experimental phase,yes,?¸ì–´?™ê³¼?¬ë¦¬?¤í—˜_Bì¡?ê¸°ë§ê³¼ì œ?©ì‹¬ë¦¬ì‹¤??osexp,E:\2023?„ë„ 1?™ê¸°\?¸ì–´?™ê³¼?¬ë¦¬?¤í—˜,no,mono,no,18,no,black,no,no,768,psycho,38,38,0,E:\2023?„ë„ 1?™ê¸°\?¸ì–´?™ê³¼?¬ë¦¬?¤í—˜\quickrun.csv,psycho,Lentiform Loewenfeld,3.3.14,no,"?¤ë…¸?°ë³´??,artifactual""",no-correlation,0,None,NA,a,NA,space,None,n,0.016400008,NA,2593.109,NA,6461.0581,0.016400008,1738.6462,2,psycho,1024,2,48000,-16,experiment,999,odd,"ê½?,natural""",NA,107219.9087,16432.6265,16432.5808,NA,13838.4886,2882.2141,16432.1404,NA,106507.7896,2930.4788,109064.2497,109064.5127,9392.6066,106714.8767,NA,107324.8588,106499.808,Extended template,0,0.640999991,39,yes,1024,,
0,0,0.0164125,0.0164125,white,yes,psycho,psycho,psycho,0,uniform,0,undefined,0,a,1,0,42,1,1,0,0,0,0,NA,42,0,42,42,0,42,1,42,42,Sun Dec  3 01:03:01 2023,A template containing a practice and an experimental phase,yes,?¸ì–´?™ê³¼?¬ë¦¬?¤í—˜_Bì¡?ê¸°ë§ê³¼ì œ?©ì‹¬ë¦¬ì‹¤??osexp,E:\2023?„ë„ 1?™ê¸°\?¸ì–´?™ê³¼?¬ë¦¬?¤í—˜,no,mono,no,18,no,black,no,no,768,psycho,39,39,0,E:\2023?„ë„ 1?™ê¸°\?¸ì–´?™ê³¼?¬ë¦¬?¤í—˜\quickrun.csv,psycho,Lentiform Loewenfeld,3.3.14,no,"?„ë¦°??,artifactual""",similar-environmental,0,None,NA,a,NA,space,None,a,0.015500002,NA,2593.109,NA,6461.0581,0.015500002,769.3295,2,psycho,1024,2,48000,-16,experiment,999,odd,ì¢…ì´,artifactual,NA,109868.4661,16432.6265,16432.5808,NA,13838.4886,2882.2141,16432.1404,NA,109153.3421,2930.4788,110748.1176,110748.3778,9392.6066,109359.6282,NA,109978.0677,109139.6877,Extended template,0,0.656499993,40,yes,1024,
0,0,0.016412195,0.016412195,white,yes,psycho,psycho,psycho,0,uniform,0,undefined,0,n,1,0,43,1,1,0,0,0,0,NA,43,0,43,43,0,43,1,43,43,Sun Dec  3 01:03:01 2023,A template containing a practice and an experimental phase,yes,?¸ì–´?™ê³¼?¬ë¦¬?¤í—˜_Bì¡?ê¸°ë§ê³¼ì œ?©ì‹¬ë¦¬ì‹¤??osexp,E:\2023?„ë„ 1?™ê¸°\?¸ì–´?™ê³¼?¬ë¦¬?¤í—˜,no,mono,no,18,no,black,no,no,768,psycho,40,40,0,E:\2023?„ë„ 1?™ê¸°\?¸ì–´?™ê³¼?¬ë¦¬?¤í—˜\quickrun.csv,psycho,Lentiform Loewenfeld,3.3.14,no,"ë¶?,natural""",no-correlation,0,None,NA,a,NA,space,None,n,0.016400008,NA,2593.109,NA,6461.0581,0.016400008,872.9454,2,psycho,1024,2,48000,-16,experiment,999,odd,ë°”ìœ„,natural,NA,111565.3842,16432.6265,16432.5808,NA,13838.4886,2882.2141,16432.1404,NA,110833.5885,2930.4788,112544.2081,112544.4775,9392.6066,111048.9257,NA,111670.5047,110820.3074,Extended template,0,0.672900002,41,yes,1024,
0,0,0.016419048,0.016419048,white,yes,psycho,psycho,psycho,0,uniform,0,undefined,0,a,1,0,44,1,1,0,0,0,0,NA,44,0,44,44,0,44,1,44,44,Sun Dec  3 01:03:01 2023,A template containing a practice and an experimental phase,yes,?¸ì–´?™ê³¼?¬ë¦¬?¤í—˜_Bì¡?ê¸°ë§ê³¼ì œ?©ì‹¬ë¦¬ì‹¤??osexp,E:\2023?„ë„ 1?™ê¸°\?¸ì–´?™ê³¼?¬ë¦¬?¤í—˜,no,mono,no,18,no,black,no,no,768,psycho,41,41,0,E:\2023?„ë„ 1?™ê¸°\?¸ì–´?™ê³¼?¬ë¦¬?¤í—˜\quickrun.csv,psycho,Lentiform Loewenfeld,3.3.14,no,?±ëƒ¥,artifactual,same phoneme,0,None,NA,a,NA,space,None,a,0.016700011,NA,2593.109,NA,6461.0581,0.016700011,628.5099001,2,psycho,1024,2,48000,-16,experiment,999,odd,"?±ì ??,artifactual""",NA,113354.0189,16432.6265,16432.5808,NA,13838.4886,2882.2141,16432.1404,NA,112638.8348,2930.4788,114088.2528,114088.5309,9392.6066,112845.3439,NA,113458.931,112630.4811,Extended template,0,0.689600012,42,yes,1024,
0,0,0.016546513,0.016546513,white,yes,psycho,psycho,psycho,0,uniform,0,undefined,0,a,1,0,45,1,1,0,0,0,0,NA,45,0,45,45,0,45,1,45,45,Sun Dec  3 01:03:01 2023,A template containing a practice and an experimental phase,yes,?¸ì–´?™ê³¼?¬ë¦¬?¤í—˜_Bì¡?ê¸°ë§ê³¼ì œ?©ì‹¬ë¦¬ì‹¤??osexp,E:\2023?„ë„ 1?™ê¸°\?¸ì–´?™ê³¼?¬ë¦¬?¤í—˜,no,mono,no,18,no,black,no,no,768,psycho,42,42,0,E:\2023?„ë„ 1?™ê¸°\?¸ì–´?™ê³¼?¬ë¦¬?¤í—˜\quickrun.csv,psycho,Lentiform Loewenfeld,3.3.14,no,"?Œë‚˜ë¬?,natural""",same phoneme,0,None,NA,a,NA,space,None,a,0.02190005,NA,2593.109,NA,6461.0581,0.02190005,957.6667,2,psycho,1024,2,48000,-16,experiment,999,odd,"?Œë°©??,artifactual""",NA,114901.0233,16432.6265,16432.5808,NA,13838.4886,2882.2141,16432.1404,NA,114178.0886,2930.4788,115964.483,115964.7847,9392.6066,114393.2316,NA,115005.8354,114163.6816,Extended template,0,0.711500063,43,yes,1024,,
0,0,0.016540911,0.016540911,white,yes,psycho,psycho,psycho,0,uniform,0,undefined,0,n,1,0,46,1,1,0,0,0,0,NA,46,0,46,46,0,46,1,46,46,Sun Dec  3 01:03:01 2023,A template containing a practice and an experimental phase,yes,?¸ì–´?™ê³¼?¬ë¦¬?¤í—˜_Bì¡?ê¸°ë§ê³¼ì œ?©ì‹¬ë¦¬ì‹¤??osexp,E:\2023?„ë„ 1?™ê¸°\?¸ì–´?™ê³¼?¬ë¦¬?¤í—˜,no,mono,no,18,no,black,no,no,768,psycho,43,43,0,E:\2023?„ë„ 1?™ê¸°\?¸ì–´?™ê³¼?¬ë¦¬?¤í—˜\quickrun.csv,psycho,Lentiform Loewenfeld,3.3.14,no,"?¸ë‘??,natural""",same phoneme,0,None,NA,a,NA,space,None,n,0.016300008,NA,2593.109,NA,6461.0581,0.016300008,633.7967999,2,psycho,1024,2,48000,-16,experiment,999,odd,?¸ìˆ˜,natural,NA,116764.4942,16432.6265,16432.5808,NA,13838.4886,2882.2141,16432.1404,NA,116049.1426,2930.4788,117504.4461,117504.7292,9392.6066,116255.8746,NA,116869.7289,116040.5643,Extended template,0,0.72780007,44,yes,1024,
0,0,0.016535557,0.016535557,white,yes,psycho,psycho,psycho,0,uniform,0,undefined,0,a,1,0,47,1,1,0,0,0,0,NA,47,0,47,47,0,47,1,47,47,Sun Dec  3 01:03:01 2023,A template containing a practice and an experimental phase,yes,?¸ì–´?™ê³¼?¬ë¦¬?¤í—˜_Bì¡?ê¸°ë§ê³¼ì œ?©ì‹¬ë¦¬ì‹¤??osexp,E:\2023?„ë„ 1?™ê¸°\?¸ì–´?™ê³¼?¬ë¦¬?¤í—˜,no,mono,no,18,no,black,no,no,768,psycho,44,44,0,E:\2023?„ë„ 1?™ê¸°\?¸ì–´?™ê³¼?¬ë¦¬?¤í—˜\quickrun.csv,psycho,Lentiform Loewenfeld,3.3.14,no,?™ì ,artifactual,same phoneme,0,None,NA,a,NA,space,None,a,0.016300008,NA,2593.109,NA,6461.0581,0.016300008,1018.8615,2,psycho,1024,2,48000,-16,experiment,999,odd,?™ìˆ ,artifactual,NA,118311.9365,16432.6265,16432.5808,NA,13838.4886,2882.2141,16432.1404,NA,117596.5839,2930.4788,119436.4707,119436.7574,9392.6066,117802.8441,NA,118416.65,117580.9242,Extended template,0,0.744100078,45,yes,1024
0,0,0.016526089,0.016526089,white,yes,psycho,psycho,psycho,0,uniform,0,undefined,0,n,1,0,48,1,1,0,0,0,0,NA,48,0,48,48,0,48,1,48,48,Sun Dec  3 01:03:01 2023,A template containing a practice and an experimental phase,yes,?¸ì–´?™ê³¼?¬ë¦¬?¤í—˜_Bì¡?ê¸°ë§ê³¼ì œ?©ì‹¬ë¦¬ì‹¤??osexp,E:\2023?„ë„ 1?™ê¸°\?¸ì–´?™ê³¼?¬ë¦¬?¤í—˜,no,mono,no,18,no,black,no,no,768,psycho,45,45,0,E:\2023?„ë„ 1?™ê¸°\?¸ì–´?™ê³¼?¬ë¦¬?¤í—˜\quickrun.csv,psycho,Lentiform Loewenfeld,3.3.14,no,"?´ì§ˆ??,natural""",same phoneme,0,None,NA,a,NA,space,None,n,0.016100006,NA,2593.109,NA,6461.0581,0.016100006,1658.1731,2,psycho,1024,2,48000,-16,experiment,999,odd,?´ë§ˆ,natural,NA,120238.5053,16432.6265,16432.5808,NA,13838.4886,2882.2141,16432.1404,NA,119518.4062,2930.4788,122008.3551,122008.6483,9392.6066,119733.8646,NA,120349.3177,119511.3712,Extended template,0,0.760200084,46,yes,1024,
0,0,0.016540425,0.016540425,white,yes,psycho,psycho,psycho,0,uniform,0,undefined,0,n,1,0,49,1,1,0,0,0,0,NA,49,0,49,49,0,49,1,49,49,Sun Dec  3 01:03:01 2023,A template containing a practice and an experimental phase,yes,?¸ì–´?™ê³¼?¬ë¦¬?¤í—˜_Bì¡?ê¸°ë§ê³¼ì œ?©ì‹¬ë¦¬ì‹¤??osexp,E:\2023?„ë„ 1?™ê¸°\?¸ì–´?™ê³¼?¬ë¦¬?¤í—˜,no,mono,no,18,no,black,no,no,768,psycho,46,46,0,E:\2023?„ë„ 1?™ê¸°\?¸ì–´?™ê³¼?¬ë¦¬?¤í—˜\quickrun.csv,psycho,Lentiform Loewenfeld,3.3.14,no,?„êµ¬,artifactual,similar-environmental,0,None,NA,a,NA,space,None,n,0.017199898,NA,2593.109,NA,6461.0581,0.017199898,710.5446,2,psycho,1024,2,48000,-16,experiment,999,odd,"ë¹?,natural""",NA,122812.2006,16432.6265,16432.5808,NA,13838.4886,2882.2141,16432.1404,NA,122097.0065,2930.4788,123628.2624,123628.5643,9392.6066,122303.681,NA,122916.9369,122082.552,Extended template,0,0.777399982,47,yes,1024,
0,0,0.016558331,0.016558331,white,yes,psycho,psycho,psycho,0,uniform,0,undefined,0,a,1,0,50,1,1,0,0,0,0,NA,50,0,50,50,0,50,1,50,50,Sun Dec  3 01:03:01 2023,A template containing a practice and an experimental phase,yes,?¸ì–´?™ê³¼?¬ë¦¬?¤í—˜_Bì¡?ê¸°ë§ê³¼ì œ?©ì‹¬ë¦¬ì‹¤??osexp,E:\2023?„ë„ 1?™ê¸°\?¸ì–´?™ê³¼?¬ë¦¬?¤í—˜,no,mono,no,18,no,black,no,no,768,psycho,47,47,0,E:\2023?„ë„ 1?™ê¸°\?¸ì–´?™ê³¼?¬ë¦¬?¤í—˜\quickrun.csv,psycho,Lentiform Loewenfeld,3.3.14,no,?¥ìˆ˜,artifactual,no-correlation,0,None,NA,a,NA,space,None,a,0.0173999,NA,2593.109,NA,6461.0581,0.0173999,623.7226001,2,psycho,1024,2,48000,-16,experiment,999,odd,"? í’ê¸?,artifactual""",NA,124442.723,16432.6265,16432.5808,NA,13838.4886,2882.2141,16432.1404,NA,123727.2001,2930.4788,125172.3687,125172.6798,9392.6066,123933.8763,NA,124547.7558,123714.7392,Extended template,0,0.794799882,48,yes,1024,
0,0,0.016563263,0.016563263,white,yes,psycho,psycho,psycho,0,uniform,0,undefined,0,a,1,0,51,1,1,0,0,0,0,NA,51,0,51,51,0,51,1,51,51,Sun Dec  3 01:03:01 2023,A template containing a practice and an experimental phase,yes,?¸ì–´?™ê³¼?¬ë¦¬?¤í—˜_Bì¡?ê¸°ë§ê³¼ì œ?©ì‹¬ë¦¬ì‹¤??osexp,E:\2023?„ë„ 1?™ê¸°\?¸ì–´?™ê³¼?¬ë¦¬?¤í—˜,no,mono,no,18,no,black,no,no,768,psycho,48,48,0,E:\2023?„ë„ 1?™ê¸°\?¸ì–´?™ê³¼?¬ë¦¬?¤í—˜\quickrun.csv,psycho,Lentiform Loewenfeld,3.3.14,no,"??,natural""",similar-environmental,0,None,NA,a,NA,space,None,a,0.016800012,NA,2593.109,NA,6461.0581,0.016800012,1173.5632,2,psycho,1024,2,48000,-16,experiment,999,odd,?¤í‚¤,artifactual,NA,125972.9442,16432.6265,16432.5808,NA,13838.4886,2882.2141,16432.1404,NA,125258.1466,2930.4788,127252.2854,127252.5966,9392.6066,125464.3116,NA,126077.8728,125246.4175,Extended template,0,0.811599893,49,yes,1024,
0,0,0.016557998,0.016557998,white,yes,psycho,psycho,psycho,0,uniform,0,undefined,0,a,1,0,52,1,1,0,0,0,0,NA,52,0,52,52,0,52,1,52,52,Sun Dec  3 01:03:01 2023,A template containing a practice and an experimental phase,yes,?¸ì–´?™ê³¼?¬ë¦¬?¤í—˜_Bì¡?ê¸°ë§ê³¼ì œ?©ì‹¬ë¦¬ì‹¤??osexp,E:\2023?„ë„ 1?™ê¸°\?¸ì–´?™ê³¼?¬ë¦¬?¤í—˜,no,mono,no,18,no,black,no,no,768,psycho,49,49,0,E:\2023?„ë„ 1?™ê¸°\?¸ì–´?™ê³¼?¬ë¦¬?¤í—˜\quickrun.csv,psycho,Lentiform Loewenfeld,3.3.14,no,"?¤ë³´??,artifactual""",similar-environmental,0,None,NA,a,NA,space,None,a,0.016300008,NA,2593.109,NA,6461.0581,0.016300008,1601.6351,2,psycho,1024,2,48000,-16,experiment,999,odd,"ì»´í“¨??,artifactual""",NA,128052.6208,16432.6265,16432.5808,NA,13838.4886,2882.2141,16432.1404,NA,127337.5045,2930.4788,129760.2751,129760.5841,9392.6066,127544.206,NA,128157.8007,127328.8163,Extended template,0,0.827899901,50,yes,1024,,
0,0,0.016543135,0.016543135,white,yes,psycho,psycho,psycho,0,uniform,0,undefined,0,a,1,0,53,1,1,0,0,0,0,NA,53,0,53,53,0,53,1,53,53,Sun Dec  3 01:03:01 2023,A template containing a practice and an experimental phase,yes,?¸ì–´?™ê³¼?¬ë¦¬?¤í—˜_Bì¡?ê¸°ë§ê³¼ì œ?©ì‹¬ë¦¬ì‹¤??osexp,E:\2023?„ë„ 1?™ê¸°\?¸ì–´?™ê³¼?¬ë¦¬?¤í—˜,no,mono,no,18,no,black,no,no,768,psycho,50,50,0,E:\2023?„ë„ 1?™ê¸°\?¸ì–´?™ê³¼?¬ë¦¬?¤í—˜\quickrun.csv,psycho,Lentiform Loewenfeld,3.3.14,no,ê³¼ì¼,natural,no-correlation,0,None,NA,a,NA,space,None,a,0.015800004,NA,2593.109,NA,6461.0581,0.015800004,1215.3359,2,psycho,1024,2,48000,-16,experiment,999,odd,"ê°€ë°?,artifactual""",NA,130562.242,16432.6265,16432.5808,NA,13838.4886,2882.2141,16432.1404,NA,129849.875,2930.4788,131888.3065,131888.6219,9392.6066,130056.9918,NA,130672.0506,129838.4788,Extended template,0,0.843699905,51,yes,1024,
0,0,0.01653846,0.01653846,white,yes,psycho,psycho,psycho,0,uniform,0,undefined,0,n,1,0,54,1,1,0,0,0,0,NA,54,0,54,54,0,54,1,54,54,Sun Dec  3 01:03:01 2023,A template containing a practice and an experimental phase,yes,?¸ì–´?™ê³¼?¬ë¦¬?¤í—˜_Bì¡?ê¸°ë§ê³¼ì œ?©ì‹¬ë¦¬ì‹¤??osexp,E:\2023?„ë„ 1?™ê¸°\?¸ì–´?™ê³¼?¬ë¦¬?¤í—˜,no,mono,no,18,no,black,no,no,768,psycho,51,51,0,E:\2023?„ë„ 1?™ê¸°\?¸ì–´?™ê³¼?¬ë¦¬?¤í—˜\quickrun.csv,psycho,Lentiform Loewenfeld,3.3.14,no,"?¤ë…¸?°ë³´??,artifactual""",no-correlation,0,None,NA,a,NA,space,None,n,0.016300008,NA,2593.109,NA,6461.0581,0.016300008,649.2653,2,psycho,1024,2,48000,-16,experiment,999,odd,"?Œë‚˜ë¬?,natural""",NA,132694.7716,16432.6265,16432.5808,NA,13838.4886,2882.2141,16432.1404,NA,131979.5616,2930.4788,133452.1423,133452.4594,9392.6066,132185.8046,NA,132802.1187,131965.2057,Extended template,0,0.859999913,52,yes,1024,,
0,0,0.0165283,0.0165283,white,yes,psycho,psycho,psycho,0,uniform,0,undefined,0,a,1,0,55,1,1,0,0,0,0,NA,55,0,55,55,0,55,1,55,55,Sun Dec  3 01:03:01 2023,A template containing a practice and an experimental phase,yes,?¸ì–´?™ê³¼?¬ë¦¬?¤í—˜_Bì¡?ê¸°ë§ê³¼ì œ?©ì‹¬ë¦¬ì‹¤??osexp,E:\2023?„ë„ 1?™ê¸°\?¸ì–´?™ê³¼?¬ë¦¬?¤í—˜,no,mono,no,18,no,black,no,no,768,psycho,52,52,0,E:\2023?„ë„ 1?™ê¸°\?¸ì–´?™ê³¼?¬ë¦¬?¤í—˜\quickrun.csv,psycho,Lentiform Loewenfeld,3.3.14,no,?¸ìˆ˜,natural,no-correlation,0,None,NA,a,NA,space,None,a,0.016000005,NA,2593.109,NA,6461.0581,0.016000005,1523.8984,2,psycho,1024,2,48000,-16,experiment,999,odd,?€?™êµ,artifactual,NA,134258.5305,16432.6265,16432.5808,NA,13838.4886,2882.2141,16432.1404,NA,133543.1265,2930.4788,135888.268,135888.5894,9392.6066,133749.3009,NA,134363.5731,133528.7116,Extended template,0,0.875999918,53,yes,1024
0,0,0.016522221,0.016522221,white,yes,psycho,psycho,psycho,0,uniform,0,undefined,0,n,1,0,56,1,1,0,0,0,0,NA,56,0,56,56,0,56,1,56,56,Sun Dec  3 01:03:01 2023,A template containing a practice and an experimental phase,yes,?¸ì–´?™ê³¼?¬ë¦¬?¤í—˜_Bì¡?ê¸°ë§ê³¼ì œ?©ì‹¬ë¦¬ì‹¤??osexp,E:\2023?„ë„ 1?™ê¸°\?¸ì–´?™ê³¼?¬ë¦¬?¤í—˜,no,mono,no,18,no,black,no,no,768,psycho,53,53,0,E:\2023?„ë„ 1?™ê¸°\?¸ì–´?™ê³¼?¬ë¦¬?¤í—˜\quickrun.csv,psycho,Lentiform Loewenfeld,3.3.14,no,"?±ì‚°ë¡?,artifactual""",similar-environmental,0,None,NA,a,NA,space,None,n,0.016200007,NA,2593.109,NA,6461.0581,0.016200007,759.1699001,2,psycho,1024,2,48000,-16,experiment,999,odd,"??,natural""",NA,136687.5367,16432.6265,16432.5808,NA,13838.4886,2882.2141,16432.1404,NA,135972.2567,2930.4788,137552.2665,137552.59,9392.6066,136178.9719,NA,136792.2976,135964.7833,Extended template,0,0.892199925,54,yes,1024,,
0,0,0.016527269,0.016527269,white,yes,psycho,psycho,psycho,0,uniform,0,undefined,0,a,1,0,57,1,1,0,0,0,0,NA,57,0,57,57,0,57,1,57,57,Sun Dec  3 01:03:01 2023,A template containing a practice and an experimental phase,yes,?¸ì–´?™ê³¼?¬ë¦¬?¤í—˜_Bì¡?ê¸°ë§ê³¼ì œ?©ì‹¬ë¦¬ì‹¤??osexp,E:\2023?„ë„ 1?™ê¸°\?¸ì–´?™ê³¼?¬ë¦¬?¤í—˜,no,mono,no,18,no,black,no,no,768,psycho,54,54,0,E:\2023?„ë„ 1?™ê¸°\?¸ì–´?™ê³¼?¬ë¦¬?¤í—˜\quickrun.csv,psycho,Lentiform Loewenfeld,3.3.14,no,ê³„ê³¡,natural,no-correlation,0,None,NA,a,NA,space,None,a,0.016799895,NA,2593.109,NA,6461.0581,0.016799895,950.9524,2,psycho,1024,2,48000,-16,experiment,999,odd,"?”ì¥??,artifactual""",NA,138351.3176,16432.6265,16432.5808,NA,13838.4886,2882.2141,16432.1404,NA,137635.8035,2930.4788,139408.3046,139408.6397,9392.6066,137842.5762,NA,138456.4095,137624.8791,Extended template,0,0.90899982,55,yes,1024,
0,0,0.016503568,0.016503568,white,yes,psycho,psycho,psycho,0,uniform,0,undefined,0,a,1,0,58,1,1,0,0,0,0,NA,58,0,58,58,0,58,1,58,58,Sun Dec  3 01:03:01 2023,A template containing a practice and an experimental phase,yes,?¸ì–´?™ê³¼?¬ë¦¬?¤í—˜_Bì¡?ê¸°ë§ê³¼ì œ?©ì‹¬ë¦¬ì‹¤??osexp,E:\2023?„ë„ 1?™ê¸°\?¸ì–´?™ê³¼?¬ë¦¬?¤í—˜,no,mono,no,18,no,black,no,no,768,psycho,55,55,0,E:\2023?„ë„ 1?™ê¸°\?¸ì–´?™ê³¼?¬ë¦¬?¤í—˜\quickrun.csv,psycho,Lentiform Loewenfeld,3.3.14,no,ë°”ë‹¤,natural,same phoneme,0,None,NA,a,NA,space,None,a,0.015199999,NA,2593.109,NA,6461.0581,0.015199999,956.4884,2,psycho,1024,2,48000,-16,experiment,999,odd,ë°”ë‹¥,artifactual,NA,140206.1568,16432.6265,16432.5808,NA,13838.4886,2882.2141,16432.1404,NA,139491.1064,2930.4788,141268.2936,141268.6331,9392.6066,139697.2134,NA,140310.9749,139482.7479,Extended template,0,0.92419982,56,yes,1024
0,0,0.016545609,0.016545609,white,yes,psycho,psycho,psycho,0,uniform,0,undefined,0,a,1,0,59,1,1,0,0,0,0,NA,59,0,59,59,0,59,1,59,59,Sun Dec  3 01:03:01 2023,A template containing a practice and an experimental phase,yes,?¸ì–´?™ê³¼?¬ë¦¬?¤í—˜_Bì¡?ê¸°ë§ê³¼ì œ?©ì‹¬ë¦¬ì‹¤??osexp,E:\2023?„ë„ 1?™ê¸°\?¸ì–´?™ê³¼?¬ë¦¬?¤í—˜,no,mono,no,18,no,black,no,no,768,psycho,56,56,0,E:\2023?„ë„ 1?™ê¸°\?¸ì–´?™ê³¼?¬ë¦¬?¤í—˜\quickrun.csv,psycho,Lentiform Loewenfeld,3.3.14,no,"??,natural""",similar-environmental,0,None,NA,a,NA,space,None,a,0.018899911,NA,2593.109,NA,6461.0581,0.018899911,1276.2754,2,psycho,1024,2,48000,-16,experiment,999,odd,"?¤ë‘ë§?,artifactual""",NA,142077.9753,16432.6265,16432.5808,NA,13838.4886,2882.2141,16432.1404,NA,141362.7445,2930.4788,143460.3616,143460.725,9392.6066,141569.8709,NA,142183.1985,141347.4319,Extended template,0,0.943099731,57,yes,1024,,
0,0,0.016543099,0.016543099,white,yes,psycho,psycho,psycho,0,uniform,0,undefined,0,x,1,0,60,1,1,0,0,0,0,NA,60,0,60,60,0,60,1,60,60,Sun Dec  3 01:03:01 2023,A template containing a practice and an experimental phase,yes,?¸ì–´?™ê³¼?¬ë¦¬?¤í—˜_Bì¡?ê¸°ë§ê³¼ì œ?©ì‹¬ë¦¬ì‹¤??osexp,E:\2023?„ë„ 1?™ê¸°\?¸ì–´?™ê³¼?¬ë¦¬?¤í—˜,no,mono,no,18,no,black,no,no,768,psycho,57,57,0,E:\2023?„ë„ 1?™ê¸°\?¸ì–´?™ê³¼?¬ë¦¬?¤í—˜\quickrun.csv,psycho,Lentiform Loewenfeld,3.3.14,no,?¬ì,natural,non-word,0,None,NA,a,NA,space,None,x,0.016400008,NA,2593.109,NA,6461.0581,0.016400008,2109.0827,2,psycho,1024,2,48000,-16,experiment,999,odd,?¬ìŠ¤ë°”ì´,non-word,NA,144265.568,16432.6265,16432.5808,NA,13838.4886,2882.2141,16432.1404,NA,143550.4644,2930.4788,146480.5352,146480.8851,9392.6066,143757.0432,NA,144370.3923,143536.9403,Extended template,0,0.959499739,58,yes,1024
0,0,0.016679658,0.016679658,white,yes,psycho,psycho,psycho,0,uniform,0,undefined,0,n,1,0,61,1,1,0,0,0,0,NA,61,0,61,61,0,61,1,61,61,Sun Dec  3 01:03:01 2023,A template containing a practice and an experimental phase,yes,?¸ì–´?™ê³¼?¬ë¦¬?¤í—˜_Bì¡?ê¸°ë§ê³¼ì œ?©ì‹¬ë¦¬ì‹¤??osexp,E:\2023?„ë„ 1?™ê¸°\?¸ì–´?™ê³¼?¬ë¦¬?¤í—˜,no,mono,no,18,no,black,no,no,768,psycho,58,58,0,E:\2023?„ë„ 1?™ê¸°\?¸ì–´?™ê³¼?¬ë¦¬?¤í—˜\quickrun.csv,psycho,Lentiform Loewenfeld,3.3.14,no,"??,natural""",similar-environmental,0,None,NA,a,NA,space,None,n,0.024600071,NA,2593.109,NA,6461.0581,0.024600071,1532.1312,2,psycho,1024,2,48000,-16,experiment,999,odd,?…ì–´,natural,NA,147285.5255,16432.6265,16432.5808,NA,13838.4886,2882.2141,16432.1404,NA,146570.2535,2930.4788,148927.357,148927.985,9392.6066,146776.476,NA,147390.1283,146555.1867,Extended template,0,0.98409981,59,yes,1024,
0,0,0.01666833,0.01666833,white,yes,psycho,psycho,psycho,0,uniform,0,undefined,0,a,1,0,62,1,1,0,0,0,0,NA,62,0,62,62,0,62,1,62,62,Sun Dec  3 01:03:01 2023,A template containing a practice and an experimental phase,yes,?¸ì–´?™ê³¼?¬ë¦¬?¤í—˜_Bì¡?ê¸°ë§ê³¼ì œ?©ì‹¬ë¦¬ì‹¤??osexp,E:\2023?„ë„ 1?™ê¸°\?¸ì–´?™ê³¼?¬ë¦¬?¤í—˜,no,mono,no,18,no,black,no,no,768,psycho,59,59,0,E:\2023?„ë„ 1?™ê¸°\?¸ì–´?™ê³¼?¬ë¦¬?¤í—˜\quickrun.csv,psycho,Lentiform Loewenfeld,3.3.14,no,ë°”ëŒ,natural,similar-environmental,0,None,NA,a,NA,space,None,a,0.016000005,NA,2593.109,NA,6461.0581,0.016000005,715.1788,2,psycho,1024,2,48000,-16,experiment,999,odd,ì°½ë¬¸,artifactual,NA,149731.1139,16432.6265,16432.5808,NA,13838.4886,2882.2141,16432.1404,NA,149015.556,2930.4788,150552.1672,150552.5217,9392.6066,149222.8264,NA,149836.1905,149003.5178,Extended template,0,1.000099815,60,yes,1024
0,0,0.016655735,0.016655735,white,yes,psycho,psycho,psycho,0,uniform,0,undefined,0,a,0,0,63,1,1,0,0,0,0,NA,63,0,63,63,0,63,1,63,63,Sun Dec  3 01:03:01 2023,A template containing a practice and an experimental phase,yes,?¸ì–´?™ê³¼?¬ë¦¬?¤í—˜_Bì¡?ê¸°ë§ê³¼ì œ?©ì‹¬ë¦¬ì‹¤??osexp,E:\2023?„ë„ 1?™ê¸°\?¸ì–´?™ê³¼?¬ë¦¬?¤í—˜,no,mono,no,18,no,black,no,no,768,psycho,60,60,0,E:\2023?„ë„ 1?™ê¸°\?¸ì–´?™ê³¼?¬ë¦¬?¤í—˜\quickrun.csv,psycho,Lentiform Loewenfeld,3.3.14,no,"ê½?,natural""",no-correlation,0,None,NA,a,NA,space,None,n,0.015900005,NA,2593.109,NA,6461.0581,0.015900005,585.5332999,2,psycho,1024,2,48000,-16,experiment,999,odd,?ì°¨,artifactual,NA,151353.1027,16432.6265,16432.5808,NA,13838.4886,2882.2141,16432.1404,NA,150637.7863,2930.4788,152044.3119,152044.6696,9392.6066,150844.5909,NA,151457.9459,150624.4636,Extended template,0,1.01599982,61,yes,1024,
0,0,0.016674191,0.016674191,white,yes,psycho,psycho,psycho,0,uniform,0,undefined,0,a,1,0,64,1,1,0,0,0,0,NA,64,0,64,64,0,64,1,64,64,Sun Dec  3 01:03:01 2023,A template containing a practice and an experimental phase,yes,?¸ì–´?™ê³¼?¬ë¦¬?¤í—˜_Bì¡?ê¸°ë§ê³¼ì œ?©ì‹¬ë¦¬ì‹¤??osexp,E:\2023?„ë„ 1?™ê¸°\?¸ì–´?™ê³¼?¬ë¦¬?¤í—˜,no,mono,no,18,no,black,no,no,768,psycho,61,61,0,E:\2023?„ë„ 1?™ê¸°\?¸ì–´?™ê³¼?¬ë¦¬?¤í—˜\quickrun.csv,psycho,Lentiform Loewenfeld,3.3.14,no,"ëª¨ë‹ˆ??,artifactual""",same phoneme,0,None,NA,a,NA,space,None,a,0.017800019,NA,2593.109,NA,6461.0581,0.017800019,3689.7303,2,psycho,1024,2,48000,-16,experiment,999,odd,ëª¨í„°,artifactual,NA,152837.1959,16432.6265,16432.5808,NA,13838.4886,2882.2141,16432.1404,NA,152126.6236,2930.4788,156640.3908,156640.7591,9392.6066,152332.8206,NA,152949.6903,152118.8527,Extended template,0,1.033799839,62,yes,1024,
0,0,0.016668252,0.016668252,white,yes,psycho,psycho,psycho,0,uniform,0,undefined,0,n,1,0,65,1,1,0,0,0,0,NA,65,0,65,65,0,65,1,65,65,Sun Dec  3 01:03:01 2023,A template containing a practice and an experimental phase,yes,?¸ì–´?™ê³¼?¬ë¦¬?¤í—˜_Bì¡?ê¸°ë§ê³¼ì œ?©ì‹¬ë¦¬ì‹¤??osexp,E:\2023?„ë„ 1?™ê¸°\?¸ì–´?™ê³¼?¬ë¦¬?¤í—˜,no,mono,no,18,no,black,no,no,768,psycho,62,62,0,E:\2023?„ë„ 1?™ê¸°\?¸ì–´?™ê³¼?¬ë¦¬?¤í—˜\quickrun.csv,psycho,Lentiform Loewenfeld,3.3.14,no,?¤ë¦¬,artifactual,similar-environmental,0,None,NA,a,NA,space,None,n,0.016300008,NA,2593.109,NA,6461.0581,0.016300008,788.452,2,psycho,1024,2,48000,-16,experiment,999,odd,"ê°?,natural""",NA,157442.32,16432.6265,16432.5808,NA,13838.4886,2882.2141,16432.1404,NA,156727.3687,2930.4788,158336.2785,158336.6464,9392.6066,156933.7335,NA,157546.9245,156717.3179,Extended template,0,1.050099847,63,yes,1024,
0,0,0.016662498,0.016662498,white,yes,psycho,psycho,psycho,0,uniform,0,undefined,0,a,1,0,66,1,1,0,0,0,0,NA,66,0,66,66,0,66,1,66,66,Sun Dec  3 01:03:01 2023,A template containing a practice and an experimental phase,yes,?¸ì–´?™ê³¼?¬ë¦¬?¤í—˜_Bì¡?ê¸°ë§ê³¼ì œ?©ì‹¬ë¦¬ì‹¤??osexp,E:\2023?„ë„ 1?™ê¸°\?¸ì–´?™ê³¼?¬ë¦¬?¤í—˜,no,mono,no,18,no,black,no,no,768,psycho,63,63,0,E:\2023?„ë„ 1?™ê¸°\?¸ì–´?™ê³¼?¬ë¦¬?¤í—˜\quickrun.csv,psycho,Lentiform Loewenfeld,3.3.14,no,ê±´ë¬¼,artifactual,inclusive,0,None,NA,a,NA,space,None,a,0.016300008,NA,2593.109,NA,6461.0581,0.016300008,2115.1344,2,psycho,1024,2,48000,-16,experiment,999,odd,ë³‘ì›,artifactual,NA,159139.53,16432.6265,16432.5808,NA,13838.4886,2882.2141,16432.1404,NA,158424.0423,2930.4788,161360.8704,161361.2392,9392.6066,158630.963,NA,159244.3636,158408.9924,Extended template,0,1.066399855,64,yes,1024
0,0,0.01664769,0.01664769,white,yes,psycho,psycho,psycho,0,uniform,0,undefined,0,n,1,0,67,1,1,0,0,0,0,NA,67,0,67,67,0,67,1,67,67,Sun Dec  3 01:03:01 2023,A template containing a practice and an experimental phase,yes,?¸ì–´?™ê³¼?¬ë¦¬?¤í—˜_Bì¡?ê¸°ë§ê³¼ì œ?©ì‹¬ë¦¬ì‹¤??osexp,E:\2023?„ë„ 1?™ê¸°\?¸ì–´?™ê³¼?¬ë¦¬?¤í—˜,no,mono,no,18,no,black,no,no,768,psycho,64,64,0,E:\2023?„ë„ 1?™ê¸°\?¸ì–´?™ê³¼?¬ë¦¬?¤í—˜\quickrun.csv,psycho,Lentiform Loewenfeld,3.3.14,no,?„ë“±,artifactual,no-correlation,0,None,NA,a,NA,space,None,n,0.015700003,NA,2593.109,NA,6461.0581,0.015700003,3691.5896,2,psycho,1024,2,48000,-16,experiment,999,odd,"??,natural""",NA,162158.7493,16432.6265,16432.5808,NA,13838.4886,2882.2141,16432.1404,NA,161443.5977,2930.4788,165956.2478,165956.6204,9392.6066,161650.1987,NA,162263.8835,161434.8611,Extended template,0,1.082099858,65,yes,1024,
0,0,0.016642422,0.016642422,white,yes,psycho,psycho,psycho,0,uniform,0,undefined,0,a,1,0,68,1,1,0,0,0,0,NA,68,0,68,68,0,68,1,68,68,Sun Dec  3 01:03:01 2023,A template containing a practice and an experimental phase,yes,?¸ì–´?™ê³¼?¬ë¦¬?¤í—˜_Bì¡?ê¸°ë§ê³¼ì œ?©ì‹¬ë¦¬ì‹¤??osexp,E:\2023?„ë„ 1?™ê¸°\?¸ì–´?™ê³¼?¬ë¦¬?¤í—˜,no,mono,no,18,no,black,no,no,768,psycho,65,65,0,E:\2023?„ë„ 1?™ê¸°\?¸ì–´?™ê³¼?¬ë¦¬?¤í—˜\quickrun.csv,psycho,Lentiform Loewenfeld,3.3.14,no,?¸ìˆ˜,natural,no-correlation,0,None,NA,a,NA,space,None,a,0.016300008,NA,2593.109,NA,6461.0581,0.016300008,2515.1717,2,psycho,1024,2,48000,-16,experiment,999,odd,"?”ì¥??,artifactual""",NA,166759.1266,16432.6265,16432.5808,NA,13838.4886,2882.2141,16432.1404,NA,166043.4999,2930.4788,169380.4169,169380.7987,9392.6066,166250.8104,NA,166864.2857,166031.1903,Extended template,0,1.098399865,66,yes,1024,
0,0,0.016656713,0.016656713,white,yes,psycho,psycho,psycho,0,uniform,0,undefined,0,a,1,0,69,1,1,0,0,0,0,NA,69,0,69,69,0,69,1,69,69,Sun Dec  3 01:03:01 2023,A template containing a practice and an experimental phase,yes,?¸ì–´?™ê³¼?¬ë¦¬?¤í—˜_Bì¡?ê¸°ë§ê³¼ì œ?©ì‹¬ë¦¬ì‹¤??osexp,E:\2023?„ë„ 1?™ê¸°\?¸ì–´?™ê³¼?¬ë¦¬?¤í—˜,no,mono,no,18,no,black,no,no,768,psycho,66,66,0,E:\2023?„ë„ 1?™ê¸°\?¸ì–´?™ê³¼?¬ë¦¬?¤í—˜\quickrun.csv,psycho,Lentiform Loewenfeld,3.3.14,no,êµ??,artifactual,inclusive,0,None,NA,a,NA,space,None,a,0.017599901,NA,2593.109,NA,6461.0581,0.017599901,1065.7524,2,psycho,1024,2,48000,-16,experiment,999,odd,"?€?œë?êµ?,artifactual""",NA,170186.6253,16432.6265,16432.5808,NA,13838.4886,2882.2141,16432.1404,NA,169471.1943,2930.4788,171360.2986,171360.6885,9392.6066,169677.3381,NA,170293.6109,169456.9375,Extended template,0,1.115999767,67,yes,1024,
0,0,0.01668235,0.01668235,white,yes,psycho,psycho,psycho,0,uniform,0,undefined,0,n,1,0,70,1,1,0,0,0,0,NA,70,0,70,70,0,70,1,70,70,Sun Dec  3 01:03:01 2023,A template containing a practice and an experimental phase,yes,?¸ì–´?™ê³¼?¬ë¦¬?¤í—˜_Bì¡?ê¸°ë§ê³¼ì œ?©ì‹¬ë¦¬ì‹¤??osexp,E:\2023?„ë„ 1?™ê¸°\?¸ì–´?™ê³¼?¬ë¦¬?¤í—˜,no,mono,no,18,no,black,no,no,768,psycho,67,67,0,E:\2023?„ë„ 1?™ê¸°\?¸ì–´?™ê³¼?¬ë¦¬?¤í—˜\quickrun.csv,psycho,Lentiform Loewenfeld,3.3.14,no,"?Œë°©??,artifactual""",same phoneme,0,None,NA,a,NA,space,None,n,0.018400024,NA,2593.109,NA,6461.0581,0.018400024,651.0761,2,psycho,1024,2,48000,-16,experiment,999,odd,"?Œë‚˜ë¬?,natural""",NA,172166.0934,16432.6265,16432.5808,NA,13838.4886,2882.2141,16432.1404,NA,171450.9868,2930.4788,172924.3161,172924.7365,9392.6066,171657.0585,NA,172272.2745,171437.7303,Extended template,0,1.13439979,68,yes,1024,,
0,0,0.016671012,0.016671012,white,yes,psycho,psycho,psycho,0,uniform,0,undefined,0,n,1,0,71,1,1,0,0,0,0,NA,71,0,71,71,0,71,1,71,71,Sun Dec  3 01:03:01 2023,A template containing a practice and an experimental phase,yes,?¸ì–´?™ê³¼?¬ë¦¬?¤í—˜_Bì¡?ê¸°ë§ê³¼ì œ?©ì‹¬ë¦¬ì‹¤??osexp,E:\2023?„ë„ 1?™ê¸°\?¸ì–´?™ê³¼?¬ë¦¬?¤í—˜,no,mono,no,18,no,black,no,no,768,psycho,68,68,0,E:\2023?„ë„ 1?™ê¸°\?¸ì–´?™ê³¼?¬ë¦¬?¤í—˜\quickrun.csv,psycho,Lentiform Loewenfeld,3.3.14,no,"ë¬¼ê³ ê¸?,natural""",inclusive,0,None,NA,a,NA,space,None,n,0.015900005,NA,2593.109,NA,6461.0581,0.015900005,993.0167999,2,psycho,1024,2,48000,-16,experiment,999,odd,?°ì–´,natural,NA,173721.8596,16432.6265,16432.5808,NA,13838.4886,2882.2141,16432.1404,NA,173006.2965,2930.4788,174821.0119,174821.4142,9392.6066,173212.7528,NA,173826.4643,172999.2609,Extended template,0,1.150299795,69,yes,1024,
0,0,0.016672854,0.016672854,white,yes,psycho,psycho,psycho,0,uniform,0,undefined,0,n,1,0,72,1,1,0,0,0,0,NA,72,0,72,72,0,72,1,72,72,Sun Dec  3 01:03:01 2023,A template containing a practice and an experimental phase,yes,?¸ì–´?™ê³¼?¬ë¦¬?¤í—˜_Bì¡?ê¸°ë§ê³¼ì œ?©ì‹¬ë¦¬ì‹¤??osexp,E:\2023?„ë„ 1?™ê¸°\?¸ì–´?™ê³¼?¬ë¦¬?¤í—˜,no,mono,no,18,no,black,no,no,768,psycho,69,69,0,E:\2023?„ë„ 1?™ê¸°\?¸ì–´?™ê³¼?¬ë¦¬?¤í—˜\quickrun.csv,psycho,Lentiform Loewenfeld,3.3.14,no,êµ¬ë‘,artifactual,same phoneme,0,None,NA,a,NA,space,None,n,0.016800012,NA,2593.109,NA,6461.0581,0.016800012,744.1425,2,psycho,1024,2,48000,-16,experiment,999,odd,êµ¬ë¦„,natural,NA,175626.8587,16432.6265,16432.5808,NA,13838.4886,2882.2141,16432.1404,NA,174911.655,2930.4788,176480.3969,176480.8007,9392.6066,175117.7912,NA,175735.3009,174902.1123,Extended template,0,1.167099806,70,yes,1024
0,0,0.016664786,0.016664786,white,yes,psycho,psycho,psycho,0,uniform,0,undefined,0,n,1,0,73,1,1,0,0,0,0,NA,73,0,73,73,0,73,1,73,73,Sun Dec  3 01:03:01 2023,A template containing a practice and an experimental phase,yes,?¸ì–´?™ê³¼?¬ë¦¬?¤í—˜_Bì¡?ê¸°ë§ê³¼ì œ?©ì‹¬ë¦¬ì‹¤??osexp,E:\2023?„ë„ 1?™ê¸°\?¸ì–´?™ê³¼?¬ë¦¬?¤í—˜,no,mono,no,18,no,black,no,no,768,psycho,70,70,0,E:\2023?„ë„ 1?™ê¸°\?¸ì–´?™ê³¼?¬ë¦¬?¤í—˜\quickrun.csv,psycho,Lentiform Loewenfeld,3.3.14,no,"ë¶?,natural""",no-correlation,0,None,NA,a,NA,space,None,n,0.016100006,NA,2593.109,NA,6461.0581,0.016100006,501.6901001,2,psycho,1024,2,48000,-16,experiment,999,odd,"ë¬¼ê³ ê¸?,natural""",NA,177277.7943,16432.6265,16432.5808,NA,13838.4886,2882.2141,16432.1404,NA,176566.9657,2930.4788,177892.4936,177892.8977,9392.6066,176773.5736,NA,177389.7815,176553.5844,Extended template,0,1.183199813,71,yes,1024,,
0,0,0.016662498,0.016662498,white,yes,psycho,psycho,psycho,0,uniform,0,undefined,0,x,1,0,74,1,1,0,0,0,0,NA,74,0,74,74,0,74,1,74,74,Sun Dec  3 01:03:01 2023,A template containing a practice and an experimental phase,yes,?¸ì–´?™ê³¼?¬ë¦¬?¤í—˜_Bì¡?ê¸°ë§ê³¼ì œ?©ì‹¬ë¦¬ì‹¤??osexp,E:\2023?„ë„ 1?™ê¸°\?¸ì–´?™ê³¼?¬ë¦¬?¤í—˜,no,mono,no,18,no,black,no,no,768,psycho,71,71,0,E:\2023?„ë„ 1?™ê¸°\?¸ì–´?™ê³¼?¬ë¦¬?¤í—˜\quickrun.csv,psycho,Lentiform Loewenfeld,3.3.14,no,??’,natural,non-word,0,None,NA,a,NA,space,None,x,0.016500009,NA,2593.109,NA,6461.0581,0.016500009,986.1001,2,psycho,1024,2,48000,-16,experiment,999,odd,?¬ê°•,non-word,NA,178696.3234,16432.6265,16432.5808,NA,13838.4886,2882.2141,16432.1404,NA,177981.2316,2930.4788,179788.4443,179788.8593,9392.6066,178187.5624,NA,178801.3424,177967.5907,Extended template,0,1.199699822,72,yes,1024
0,0,0.016756161,0.016756161,white,yes,psycho,psycho,psycho,0,uniform,0,undefined,0,n,1,0,75,1,1,0,0,0,0,NA,75,0,75,75,0,75,1,75,75,Sun Dec  3 01:03:01 2023,A template containing a practice and an experimental phase,yes,?¸ì–´?™ê³¼?¬ë¦¬?¤í—˜_Bì¡?ê¸°ë§ê³¼ì œ?©ì‹¬ë¦¬ì‹¤??osexp,E:\2023?„ë„ 1?™ê¸°\?¸ì–´?™ê³¼?¬ë¦¬?¤í—˜,no,mono,no,18,no,black,no,no,768,psycho,72,72,0,E:\2023?„ë„ 1?™ê¸°\?¸ì–´?™ê³¼?¬ë¦¬?¤í—˜\quickrun.csv,psycho,Lentiform Loewenfeld,3.3.14,no,"ë©œë¸”??,non-word""",non-word,0,None,NA,a,NA,space,None,n,0.023499946,NA,2593.109,NA,6461.0581,0.023499946,613.718,2,psycho,1024,2,48000,-16,experiment,999,odd,??¬,natural,NA,180592.9479,16432.6265,16432.5808,NA,13838.4886,2882.2141,16432.1404,NA,179877.8366,2930.4788,181312.7194,181313.475,9392.6066,180084.1229,NA,180697.6417,179864.5244,Extended template,0,1.223199768,73,yes,1024,
0,0,0.016751348,0.016751348,white,yes,psycho,psycho,psycho,0,uniform,0,undefined,0,a,1,0,76,1,1,0,0,0,0,NA,76,0,76,76,0,76,1,76,76,Sun Dec  3 01:03:01 2023,A template containing a practice and an experimental phase,yes,?¸ì–´?™ê³¼?¬ë¦¬?¤í—˜_Bì¡?ê¸°ë§ê³¼ì œ?©ì‹¬ë¦¬ì‹¤??osexp,E:\2023?„ë„ 1?™ê¸°\?¸ì–´?™ê³¼?¬ë¦¬?¤í—˜,no,mono,no,18,no,black,no,no,768,psycho,73,73,0,E:\2023?„ë„ 1?™ê¸°\?¸ì–´?™ê³¼?¬ë¦¬?¤í—˜\quickrun.csv,psycho,Lentiform Loewenfeld,3.3.14,no,ì¢…ì´,artifactual,similar-environmental,0,None,NA,a,NA,space,None,a,0.016400008,NA,2593.109,NA,6461.0581,0.016400008,690.5738,2,psycho,1024,2,48000,-16,experiment,999,odd,"?„ë¦°??,artifactual""",NA,182123.7445,16432.6265,16432.5808,NA,13838.4886,2882.2141,16432.1404,NA,181408.3243,2930.4788,182924.3257,182924.7387,9392.6066,181614.2739,NA,182232.8486,181393.8954,Extended template,0,1.239599776,74,yes,1024,
0,0,0.016743997,0.016743997,white,yes,psycho,psycho,psycho,0,uniform,0,undefined,0,a,1,0,77,1,1,0,0,0,0,NA,77,0,77,77,0,77,1,77,77,Sun Dec  3 01:03:01 2023,A template containing a practice and an experimental phase,yes,?¸ì–´?™ê³¼?¬ë¦¬?¤í—˜_Bì¡?ê¸°ë§ê³¼ì œ?©ì‹¬ë¦¬ì‹¤??osexp,E:\2023?„ë„ 1?™ê¸°\?¸ì–´?™ê³¼?¬ë¦¬?¤í—˜,no,mono,no,18,no,black,no,no,768,psycho,74,74,0,E:\2023?„ë„ 1?™ê¸°\?¸ì–´?™ê³¼?¬ë¦¬?¤í—˜\quickrun.csv,psycho,Lentiform Loewenfeld,3.3.14,no,?™êµ,artifactual,inclusive,0,None,NA,a,NA,space,None,a,0.016200007,NA,2593.109,NA,6461.0581,0.016200007,853.7544,2,psycho,1024,2,48000,-16,experiment,999,odd,?™ìƒ,artifactual,NA,183720.7972,16432.6265,16432.5808,NA,13838.4886,2882.2141,16432.1404,NA,183005.609,2930.4788,184680.3528,184680.7744,9392.6066,183211.6605,NA,183825.6744,182997.5331,Extended template,0,1.255799783,75,yes,1024
0,0,0.016734208,0.016734208,white,yes,psycho,psycho,psycho,0,uniform,0,undefined,0,a,1,0,78,1,1,0,0,0,0,NA,78,0,78,78,0,78,1,78,78,Sun Dec  3 01:03:01 2023,A template containing a practice and an experimental phase,yes,?¸ì–´?™ê³¼?¬ë¦¬?¤í—˜_Bì¡?ê¸°ë§ê³¼ì œ?©ì‹¬ë¦¬ì‹¤??osexp,E:\2023?„ë„ 1?™ê¸°\?¸ì–´?™ê³¼?¬ë¦¬?¤í—˜,no,mono,no,18,no,black,no,no,768,psycho,75,75,0,E:\2023?„ë„ 1?™ê¸°\?¸ì–´?™ê³¼?¬ë¦¬?¤í—˜\quickrun.csv,psycho,Lentiform Loewenfeld,3.3.14,no,ëª¨ì,artifactual,no-correlation,0,None,NA,a,NA,space,None,a,0.016000005,NA,2593.109,NA,6461.0581,0.016000005,605.8159,2,psycho,1024,2,48000,-16,experiment,999,odd,"ë§ˆìš°??,artifactual""",NA,185484.3371,16432.6265,16432.5808,NA,13838.4886,2882.2141,16432.1404,NA,184769.0874,2930.4788,186196.4737,186196.899,9392.6066,184975.613,NA,185589.5877,184754.6771,Extended template,0,1.271799789,76,yes,1024,
0,0,0.016740257,0.016740257,white,yes,psycho,psycho,psycho,0,uniform,0,undefined,0,a,1,0,79,1,1,0,0,0,0,NA,79,0,79,79,0,79,1,79,79,Sun Dec  3 01:03:01 2023,A template containing a practice and an experimental phase,yes,?¸ì–´?™ê³¼?¬ë¦¬?¤í—˜_Bì¡?ê¸°ë§ê³¼ì œ?©ì‹¬ë¦¬ì‹¤??osexp,E:\2023?„ë„ 1?™ê¸°\?¸ì–´?™ê³¼?¬ë¦¬?¤í—˜,no,mono,no,18,no,black,no,no,768,psycho,76,76,0,E:\2023?„ë„ 1?™ê¸°\?¸ì–´?™ê³¼?¬ë¦¬?¤í—˜\quickrun.csv,psycho,Lentiform Loewenfeld,3.3.14,no,"??,artifactual""",similar-environmental,0,None,NA,a,NA,space,None,a,0.017200015,NA,2593.109,NA,6461.0581,0.017200015,781.7144999,2,psycho,1024,2,48000,-16,experiment,999,odd,?Œì„¤,artifactual,NA,186998.3605,16432.6265,16432.5808,NA,13838.4886,2882.2141,16432.1404,NA,186282.9807,2930.4788,187888.5252,187888.9558,9392.6066,186489.316,NA,187105.7095,186271.528,Extended template,0,1.288999803,77,yes,1024,
0,0,0.01675128,0.01675128,white,yes,psycho,psycho,psycho,0,uniform,0,undefined,0,n,1,0,80,1,1,0,0,0,0,NA,80,0,80,80,0,80,1,80,80,Sun Dec  3 01:03:01 2023,A template containing a practice and an experimental phase,yes,?¸ì–´?™ê³¼?¬ë¦¬?¤í—˜_Bì¡?ê¸°ë§ê³¼ì œ?©ì‹¬ë¦¬ì‹¤??osexp,E:\2023?„ë„ 1?™ê¸°\?¸ì–´?™ê³¼?¬ë¦¬?¤í—˜,no,mono,no,18,no,black,no,no,768,psycho,77,77,0,E:\2023?„ë„ 1?™ê¸°\?¸ì–´?™ê³¼?¬ë¦¬?¤í—˜\quickrun.csv,psycho,Lentiform Loewenfeld,3.3.14,no,?˜ì,artifactual,no-correlation,0,None,NA,a,NA,space,None,n,0.017600018,NA,2593.109,NA,6461.0581,0.017600018,620.4652,2,psycho,1024,2,48000,-16,experiment,999,odd,?‰ì„±,natural,NA,188686.8989,16432.6265,16432.5808,NA,13838.4886,2882.2141,16432.1404,NA,187971.4119,2930.4788,189416.3623,189416.8003,9392.6066,188177.5883,NA,188794.9778,187962.3676,Extended template,0,1.306599821,78,yes,1024
0,0,0.016777213,0.016777213,white,yes,psycho,psycho,psycho,0,uniform,0,undefined,0,a,1,0,81,1,1,0,0,0,0,NA,81,0,81,81,0,81,1,81,81,Sun Dec  3 01:03:01 2023,A template containing a practice and an experimental phase,yes,?¸ì–´?™ê³¼?¬ë¦¬?¤í—˜_Bì¡?ê¸°ë§ê³¼ì œ?©ì‹¬ë¦¬ì‹¤??osexp,E:\2023?„ë„ 1?™ê¸°\?¸ì–´?™ê³¼?¬ë¦¬?¤í—˜,no,mono,no,18,no,black,no,no,768,psycho,78,78,0,E:\2023?„ë„ 1?™ê¸°\?¸ì–´?™ê³¼?¬ë¦¬?¤í—˜\quickrun.csv,psycho,Lentiform Loewenfeld,3.3.14,no,ê¸°ê³„,artifactual,inclusive,0,None,NA,a,NA,space,None,a,0.018800027,NA,2593.109,NA,6461.0581,0.018800027,544.4393,2,psycho,1024,2,48000,-16,experiment,999,odd,"ì»´í“¨??,artifactual""",NA,190217.5934,16432.6265,16432.5808,NA,13838.4886,2882.2141,16432.1404,NA,189502.1084,2930.4788,190868.5962,190869.0424,9392.6066,189708.5271,NA,190323.0175,189491.026,Extended template,0,1.325399848,79,yes,1024,
0,0,0.016771248,0.016771248,white,yes,psycho,psycho,psycho,0,uniform,0,undefined,0,a,1,0,82,1,1,0,0,0,0,NA,82,0,82,82,0,82,1,82,82,Sun Dec  3 01:03:01 2023,A template containing a practice and an experimental phase,yes,?¸ì–´?™ê³¼?¬ë¦¬?¤í—˜_Bì¡?ê¸°ë§ê³¼ì œ?©ì‹¬ë¦¬ì‹¤??osexp,E:\2023?„ë„ 1?™ê¸°\?¸ì–´?™ê³¼?¬ë¦¬?¤í—˜,no,mono,no,18,no,black,no,no,768,psycho,79,79,0,E:\2023?„ë„ 1?™ê¸°\?¸ì–´?™ê³¼?¬ë¦¬?¤í—˜\quickrun.csv,psycho,Lentiform Loewenfeld,3.3.14,no,"ì»´í“¨??,artifactual""",similar-environmental,0,None,NA,a,NA,space,None,a,0.016300008,NA,2593.109,NA,6461.0581,0.016300008,777.2710001,2,psycho,1024,2,48000,-16,experiment,999,odd,"?¤ë³´??,artifactual""",NA,191673.0465,16432.6265,16432.5808,NA,13838.4886,2882.2141,16432.1404,NA,190957.9559,2930.4788,192556.3888,192556.8307,9392.6066,191164.3111,NA,191778.1392,190946.8565,Extended template,0,1.341699855,80,yes,1024,,
0,0,0.01676543,0.01676543,white,yes,psycho,psycho,psycho,0,uniform,0,undefined,0,a,0,0,83,1,1,0,0,0,0,NA,83,0,83,83,0,83,1,83,83,Sun Dec  3 01:03:01 2023,A template containing a practice and an experimental phase,yes,?¸ì–´?™ê³¼?¬ë¦¬?¤í—˜_Bì¡?ê¸°ë§ê³¼ì œ?©ì‹¬ë¦¬ì‹¤??osexp,E:\2023?„ë„ 1?™ê¸°\?¸ì–´?™ê³¼?¬ë¦¬?¤í—˜,no,mono,no,18,no,black,no,no,768,psycho,80,80,0,E:\2023?„ë„ 1?™ê¸°\?¸ì–´?™ê³¼?¬ë¦¬?¤í—˜\quickrun.csv,psycho,Lentiform Loewenfeld,3.3.14,no,?¼ì,artifactual,similar-environmental,0,None,NA,a,NA,space,None,n,0.016300008,NA,2593.109,NA,6461.0581,0.016300008,724.283,2,psycho,1024,2,48000,-16,experiment,999,odd,?ŒìŠ¤?€,artifactual,NA,193353.5581,16432.6265,16432.5808,NA,13838.4886,2882.2141,16432.1404,NA,192638.3985,2930.4788,194184.3478,194184.7916,9392.6066,192844.7394,NA,193458.9683,192630.3284,Extended template,0,1.357999863,81,yes,1024
0,0,0.016762194,0.016762194,white,yes,psycho,psycho,psycho,0,uniform,0,undefined,0,n,1,0,84,1,1,0,0,0,0,NA,84,0,84,84,0,84,1,84,84,Sun Dec  3 01:03:01 2023,A template containing a practice and an experimental phase,yes,?¸ì–´?™ê³¼?¬ë¦¬?¤í—˜_Bì¡?ê¸°ë§ê³¼ì œ?©ì‹¬ë¦¬ì‹¤??osexp,E:\2023?„ë„ 1?™ê¸°\?¸ì–´?™ê³¼?¬ë¦¬?¤í—˜,no,mono,no,18,no,black,no,no,768,psycho,81,81,0,E:\2023?„ë„ 1?™ê¸°\?¸ì–´?™ê³¼?¬ë¦¬?¤í—˜\quickrun.csv,psycho,Lentiform Loewenfeld,3.3.14,no,?¸ìˆ˜,natural,same phoneme,0,None,NA,a,NA,space,None,n,0.016500009,NA,2593.109,NA,6461.0581,0.016500009,2550.3649,2,psycho,1024,2,48000,-16,experiment,999,odd,"?¸ë‘??,natural""",NA,194983.6932,16432.6265,16432.5808,NA,13838.4886,2882.2141,16432.1404,NA,194268.7283,2930.4788,197640.2697,197640.7231,9392.6066,194475.6465,NA,195088.9835,194257.1812,Extended template,0,1.374499872,82,yes,1024,
0,0,0.016899998,0.016899998,white,yes,psycho,psycho,psycho,0,uniform,0,undefined,0,a,1,0,85,1,1,0,0,0,0,NA,85,0,85,85,0,85,1,85,85,Sun Dec  3 01:03:01 2023,A template containing a practice and an experimental phase,yes,?¸ì–´?™ê³¼?¬ë¦¬?¤í—˜_Bì¡?ê¸°ë§ê³¼ì œ?©ì‹¬ë¦¬ì‹¤??osexp,E:\2023?„ë„ 1?™ê¸°\?¸ì–´?™ê³¼?¬ë¦¬?¤í—˜,no,mono,no,18,no,black,no,no,768,psycho,82,82,0,E:\2023?„ë„ 1?™ê¸°\?¸ì–´?™ê³¼?¬ë¦¬?¤í—˜\quickrun.csv,psycho,Lentiform Loewenfeld,3.3.14,no,ë²Œë ˆ,natural,same phoneme,0,None,NA,a,NA,space,None,a,0.028199982,NA,2593.109,NA,6461.0581,0.028199982,2820.5769,2,psycho,1024,2,48000,-16,experiment,999,odd,ë°œë ˆ,artifactual,NA,198444.5331,16432.6265,16432.5808,NA,13838.4886,2882.2141,16432.1404,NA,197729.2763,2930.4788,201372.368,201372.8491,9392.6066,197935.5213,NA,198550.7678,197715.3599,Extended template,0,1.402699854,83,yes,1024
0,0,0.016894046,0.016894046,white,yes,psycho,psycho,psycho,0,uniform,0,undefined,0,n,1,0,86,1,1,0,0,0,0,NA,86,0,86,86,0,86,1,86,86,Sun Dec  3 01:03:01 2023,A template containing a practice and an experimental phase,yes,?¸ì–´?™ê³¼?¬ë¦¬?¤í—˜_Bì¡?ê¸°ë§ê³¼ì œ?©ì‹¬ë¦¬ì‹¤??osexp,E:\2023?„ë„ 1?™ê¸°\?¸ì–´?™ê³¼?¬ë¦¬?¤í—˜,no,mono,no,18,no,black,no,no,768,psycho,83,83,0,E:\2023?„ë„ 1?™ê¸°\?¸ì–´?™ê³¼?¬ë¦¬?¤í—˜\quickrun.csv,psycho,Lentiform Loewenfeld,3.3.14,no,"??,natural""",inclusive,0,None,NA,a,NA,space,None,n,0.016400008,NA,2593.109,NA,6461.0581,0.016400008,642.9083,2,psycho,1024,2,48000,-16,experiment,999,odd,?˜ë¬´,natural,NA,202179.6487,16432.6265,16432.5808,NA,13838.4886,2882.2141,16432.1404,NA,201465.7193,2930.4788,202928.4483,202928.9066,9392.6066,201671.9062,NA,202284.5075,201448.5934,Extended template,0,1.419099863,84,yes,1024,
0,0,0.016876469,0.016876469,white,yes,psycho,psycho,psycho,0,uniform,0,undefined,0,n,1,0,87,1,1,0,0,0,0,NA,87,0,87,87,0,87,1,87,87,Sun Dec  3 01:03:01 2023,A template containing a practice and an experimental phase,yes,?¸ì–´?™ê³¼?¬ë¦¬?¤í—˜_Bì¡?ê¸°ë§ê³¼ì œ?©ì‹¬ë¦¬ì‹¤??osexp,E:\2023?„ë„ 1?™ê¸°\?¸ì–´?™ê³¼?¬ë¦¬?¤í—˜,no,mono,no,18,no,black,no,no,768,psycho,84,84,0,E:\2023?„ë„ 1?™ê¸°\?¸ì–´?™ê³¼?¬ë¦¬?¤í—˜\quickrun.csv,psycho,Lentiform Loewenfeld,3.3.14,no,ê³¼ì¼,natural,inclusive,0,None,NA,a,NA,space,None,n,0.015400001,NA,2593.109,NA,6461.0581,0.015400001,935.5497001,2,psycho,1024,2,48000,-16,experiment,999,odd,?¬ê³¼,natural,NA,203726.6696,16432.6265,16432.5808,NA,13838.4886,2882.2141,16432.1404,NA,203011.4022,2930.4788,204768.3497,204768.8127,9392.6066,203217.9501,NA,203831.7715,203002.5796,Extended template,0,1.434499864,85,yes,1024
0,0,0.01686744,0.01686744,white,yes,psycho,psycho,psycho,0,uniform,0,undefined,0,n,1,0,88,1,1,0,0,0,0,NA,88,0,88,88,0,88,1,88,88,Sun Dec  3 01:03:01 2023,A template containing a practice and an experimental phase,yes,?¸ì–´?™ê³¼?¬ë¦¬?¤í—˜_Bì¡?ê¸°ë§ê³¼ì œ?©ì‹¬ë¦¬ì‹¤??osexp,E:\2023?„ë„ 1?™ê¸°\?¸ì–´?™ê³¼?¬ë¦¬?¤í—˜,no,mono,no,18,no,black,no,no,768,psycho,85,85,0,E:\2023?„ë„ 1?™ê¸°\?¸ì–´?™ê³¼?¬ë¦¬?¤í—˜\quickrun.csv,psycho,Lentiform Loewenfeld,3.3.14,no,?€?™êµ,artifactual,no-correlation,0,None,NA,a,NA,space,None,n,0.016100006,NA,2593.109,NA,6461.0581,0.016100006,1218.2931,2,psycho,1024,2,48000,-16,experiment,999,odd,ê³„ê³¡,natural,NA,205569.0079,16432.6265,16432.5808,NA,13838.4886,2882.2141,16432.1404,NA,204858.3415,2930.4788,206900.5166,206900.9858,9392.6066,205064.0399,NA,205681.1228,204843.1389,Extended template,0,1.45059987,86,yes,1024
0,0,0.016852872,0.016852872,white,yes,psycho,psycho,psycho,0,uniform,0,undefined,0,n,1,0,89,1,1,0,0,0,0,NA,89,0,89,89,0,89,1,89,89,Sun Dec  3 01:03:01 2023,A template containing a practice and an experimental phase,yes,?¸ì–´?™ê³¼?¬ë¦¬?¤í—˜_Bì¡?ê¸°ë§ê³¼ì œ?©ì‹¬ë¦¬ì‹¤??osexp,E:\2023?„ë„ 1?™ê¸°\?¸ì–´?™ê³¼?¬ë¦¬?¤í—˜,no,mono,no,18,no,black,no,no,768,psycho,86,86,0,E:\2023?„ë„ 1?™ê¸°\?¸ì–´?™ê³¼?¬ë¦¬?¤í—˜\quickrun.csv,psycho,Lentiform Loewenfeld,3.3.14,no,?¬ë ¥,artifactual,same phoneme,0,None,NA,a,NA,space,None,n,0.015600002,NA,2593.109,NA,6461.0581,0.015600002,774.6813999,2,psycho,1024,2,48000,-16,experiment,999,odd,"??,natural""",NA,207703.2144,16432.6265,16432.5808,NA,13838.4886,2882.2141,16432.1404,NA,206987.9203,2930.4788,208588.2962,208588.7685,9392.6066,207194.5131,NA,207812.7509,206978.695,Extended template,0,1.466199872,87,yes,1024,
0,0,0.016851135,0.016851135,white,yes,psycho,psycho,psycho,0,uniform,0,undefined,0,a,1,0,90,1,1,0,0,0,0,NA,90,0,90,90,0,90,1,90,90,Sun Dec  3 01:03:01 2023,A template containing a practice and an experimental phase,yes,?¸ì–´?™ê³¼?¬ë¦¬?¤í—˜_Bì¡?ê¸°ë§ê³¼ì œ?©ì‹¬ë¦¬ì‹¤??osexp,E:\2023?„ë„ 1?™ê¸°\?¸ì–´?™ê³¼?¬ë¦¬?¤í—˜,no,mono,no,18,no,black,no,no,768,psycho,87,87,0,E:\2023?„ë„ 1?™ê¸°\?¸ì–´?™ê³¼?¬ë¦¬?¤í—˜\quickrun.csv,psycho,Lentiform Loewenfeld,3.3.14,no,ê¸°ì°¨,artifactual,no-correlation,0,None,NA,a,NA,space,None,a,0.016700011,NA,2593.109,NA,6461.0581,0.016700011,812.0254,2,psycho,1024,2,48000,-16,experiment,999,odd,"ê°€ë°?,artifactual""",NA,209387.5467,16432.6265,16432.5808,NA,13838.4886,2882.2141,16432.1404,NA,208676.6038,2930.4788,210312.4197,210312.8949,9392.6066,208882.7848,NA,209499.3567,208661.7324,Extended template,0,1.482899883,88,yes,1024,
0,0,0.016844943,0.016844943,white,yes,psycho,psycho,psycho,0,uniform,0,undefined,0,a,1,0,91,1,1,0,0,0,0,NA,91,0,91,91,0,91,1,91,91,Sun Dec  3 01:03:01 2023,A template containing a practice and an experimental phase,yes,?¸ì–´?™ê³¼?¬ë¦¬?¤í—˜_Bì¡?ê¸°ë§ê³¼ì œ?©ì‹¬ë¦¬ì‹¤??osexp,E:\2023?„ë„ 1?™ê¸°\?¸ì–´?™ê³¼?¬ë¦¬?¤í—˜,no,mono,no,18,no,black,no,no,768,psycho,88,88,0,E:\2023?„ë„ 1?™ê¸°\?¸ì–´?™ê³¼?¬ë¦¬?¤í—˜\quickrun.csv,psycho,Lentiform Loewenfeld,3.3.14,no,"?±ì ??,artifactual""",same phoneme,0,None,NA,a,NA,space,None,a,0.016300008,NA,2593.109,NA,6461.0581,0.016300008,1404.7615,2,psycho,1024,2,48000,-16,experiment,999,odd,?±ëƒ¥,artifactual,NA,211113.5641,16432.6265,16432.5808,NA,13838.4886,2882.2141,16432.1404,NA,210398.3379,2930.4788,212625.1158,212625.6053,9392.6066,210605.5594,NA,211218.6099,210387.8195,Extended template,0,1.499199891,89,yes,1024,
0,0,0.016836666,0.016836666,white,yes,psycho,psycho,psycho,0,uniform,0,undefined,0,n,1,0,92,1,1,0,0,0,0,NA,92,0,92,92,0,92,1,92,92,Sun Dec  3 01:03:01 2023,A template containing a practice and an experimental phase,yes,?¸ì–´?™ê³¼?¬ë¦¬?¤í—˜_Bì¡?ê¸°ë§ê³¼ì œ?©ì‹¬ë¦¬ì‹¤??osexp,E:\2023?„ë„ 1?™ê¸°\?¸ì–´?™ê³¼?¬ë¦¬?¤í—˜,no,mono,no,18,no,black,no,no,768,psycho,89,89,0,E:\2023?„ë„ 1?™ê¸°\?¸ì–´?™ê³¼?¬ë¦¬?¤í—˜\quickrun.csv,psycho,Lentiform Loewenfeld,3.3.14,no,"??,natural""",inclusive,0,None,NA,a,NA,space,None,n,0.016100006,NA,2593.109,NA,6461.0581,0.016100006,1000.1323,2,psycho,1024,2,48000,-16,experiment,999,odd,ê¹Œì¹˜,natural,NA,213426.2971,16432.6265,16432.5808,NA,13838.4886,2882.2141,16432.1404,NA,212710.7373,2930.4788,214532.3429,214532.8306,9392.6066,212916.7146,NA,213531.1879,212701.9392,Extended template,0,1.515299897,90,yes,1024,
0,0,0.016861538,0.016861538,white,yes,psycho,psycho,psycho,0,uniform,0,undefined,0,n,1,0,93,1,1,0,0,0,0,NA,93,0,93,93,0,93,1,93,93,Sun Dec  3 01:03:01 2023,A template containing a practice and an experimental phase,yes,?¸ì–´?™ê³¼?¬ë¦¬?¤í—˜_Bì¡?ê¸°ë§ê³¼ì œ?©ì‹¬ë¦¬ì‹¤??osexp,E:\2023?„ë„ 1?™ê¸°\?¸ì–´?™ê³¼?¬ë¦¬?¤í—˜,no,mono,no,18,no,black,no,no,768,psycho,90,90,0,E:\2023?„ë„ 1?™ê¸°\?¸ì–´?™ê³¼?¬ë¦¬?¤í—˜\quickrun.csv,psycho,Lentiform Loewenfeld,3.3.14,no,?¨ë”©,artifactual,similar-environmental,0,None,NA,a,NA,space,None,n,0.019100029,NA,2593.109,NA,6461.0581,0.019100029,925.8438,2,psycho,1024,2,48000,-16,experiment,999,odd,ê²¨ìš¸,natural,NA,215347.8006,16432.6265,16432.5808,NA,13838.4886,2882.2141,16432.1404,NA,214632.6628,2930.4788,216384.3331,216384.8307,9392.6066,214838.6334,NA,215457.4546,214621.1157,Extended template,0,1.534399926,91,yes,1024
0,0,0.01685326,0.01685326,white,yes,psycho,psycho,psycho,0,uniform,0,undefined,0,a,0,0,94,1,1,0,0,0,0,NA,94,0,94,94,0,94,1,94,94,Sun Dec  3 01:03:01 2023,A template containing a practice and an experimental phase,yes,?¸ì–´?™ê³¼?¬ë¦¬?¤í—˜_Bì¡?ê¸°ë§ê³¼ì œ?©ì‹¬ë¦¬ì‹¤??osexp,E:\2023?„ë„ 1?™ê¸°\?¸ì–´?™ê³¼?¬ë¦¬?¤í—˜,no,mono,no,18,no,black,no,no,768,psycho,91,91,0,E:\2023?„ë„ 1?™ê¸°\?¸ì–´?™ê³¼?¬ë¦¬?¤í—˜\quickrun.csv,psycho,Lentiform Loewenfeld,3.3.14,no,?”ë¶„,artifactual,no-correlation,0,None,NA,a,NA,space,None,n,0.016100006,NA,2593.109,NA,6461.0581,0.016100006,1212.473,2,psycho,1024,2,48000,-16,experiment,999,odd,? ë°œ,artifactual,NA,217186.0596,16432.6265,16432.5808,NA,13838.4886,2882.2141,16432.1404,NA,216472.6448,2930.4788,218504.5047,218504.9942,9392.6066,216679.7012,NA,217290.9287,216459.8694,Extended template,0,1.550499932,92,yes,1024
0,0,0.016849462,0.016849462,white,yes,psycho,psycho,psycho,0,uniform,0,undefined,0,a,1,0,95,1,1,0,0,0,0,NA,95,0,95,95,0,95,1,95,95,Sun Dec  3 01:03:01 2023,A template containing a practice and an experimental phase,yes,?¸ì–´?™ê³¼?¬ë¦¬?¤í—˜_Bì¡?ê¸°ë§ê³¼ì œ?©ì‹¬ë¦¬ì‹¤??osexp,E:\2023?„ë„ 1?™ê¸°\?¸ì–´?™ê³¼?¬ë¦¬?¤í—˜,no,mono,no,18,no,black,no,no,768,psycho,92,92,0,E:\2023?„ë„ 1?™ê¸°\?¸ì–´?™ê³¼?¬ë¦¬?¤í—˜\quickrun.csv,psycho,Lentiform Loewenfeld,3.3.14,no,?„ê¸°,natural,similar-environmental,0,None,NA,a,NA,space,None,a,0.016500009,NA,2593.109,NA,6461.0581,0.016500009,6326.1289,2,psycho,1024,2,48000,-16,experiment,999,odd,?„ì„ ,artifactual,NA,219307.4125,16432.6265,16432.5808,NA,13838.4886,2882.2141,16432.1404,NA,218592.4328,2930.4788,225744.37,225744.8757,9392.6066,218798.8225,NA,219417.2417,218579.0802,Extended template,0,1.566999941,93,yes,1024
0,0,0.016823404,0.016823404,white,yes,psycho,psycho,psycho,0,uniform,0,undefined,0,a,1,0,96,1,1,0,0,0,0,NA,96,0,96,96,0,96,1,96,96,Sun Dec  3 01:03:01 2023,A template containing a practice and an experimental phase,yes,?¸ì–´?™ê³¼?¬ë¦¬?¤í—˜_Bì¡?ê¸°ë§ê³¼ì œ?©ì‹¬ë¦¬ì‹¤??osexp,E:\2023?„ë„ 1?™ê¸°\?¸ì–´?™ê³¼?¬ë¦¬?¤í—˜,no,mono,no,18,no,black,no,no,768,psycho,93,93,0,E:\2023?„ë„ 1?™ê¸°\?¸ì–´?™ê³¼?¬ë¦¬?¤í—˜\quickrun.csv,psycho,Lentiform Loewenfeld,3.3.14,no,ê²½ì£¼,artifactual,no-correlation,0,None,NA,a,NA,space,None,a,0.014399993,NA,2593.109,NA,6461.0581,0.014399993,1760.8593,2,psycho,1024,2,48000,-16,experiment,999,odd,ë²„ìŠ¤,artifactual,NA,226553.0997,16432.6265,16432.5808,NA,13838.4886,2882.2141,16432.1404,NA,225829.3256,2930.4788,228420.5235,228421.0234,9392.6066,226038.3914,NA,226658.6502,225819.3453,Extended template,0,1.581399934,94,yes,1024
0,0,0.01680842,0.01680842,white,yes,psycho,psycho,psycho,0,uniform,0,undefined,0,n,1,0,97,1,1,0,0,0,0,NA,97,0,97,97,0,97,1,97,97,Sun Dec  3 01:03:01 2023,A template containing a practice and an experimental phase,yes,?¸ì–´?™ê³¼?¬ë¦¬?¤í—˜_Bì¡?ê¸°ë§ê³¼ì œ?©ì‹¬ë¦¬ì‹¤??osexp,E:\2023?„ë„ 1?™ê¸°\?¸ì–´?™ê³¼?¬ë¦¬?¤í—˜,no,mono,no,18,no,black,no,no,768,psycho,94,94,0,E:\2023?„ë„ 1?™ê¸°\?¸ì–´?™ê³¼?¬ë¦¬?¤í—˜\quickrun.csv,psycho,Lentiform Loewenfeld,3.3.14,no,?˜ì˜,artifactual,similar-environmental,0,None,NA,a,NA,space,None,n,0.015400001,NA,2593.109,NA,6461.0581,0.015400001,1198.1459,2,psycho,1024,2,48000,-16,experiment,999,odd,ë°”ë‹¤,natural,NA,229223.1872,16432.6265,16432.5808,NA,13838.4886,2882.2141,16432.1404,NA,228507.5853,2930.4788,230529.1024,230529.612,9392.6066,228714.6836,NA,229329.2345,228496.3132,Extended template,0,1.596799935,95,yes,1024
0,0,0.016809374,0.016809374,white,yes,psycho,psycho,psycho,0,uniform,0,undefined,0,a,1,0,98,1,1,0,0,0,0,NA,98,0,98,98,0,98,1,98,98,Sun Dec  3 01:03:01 2023,A template containing a practice and an experimental phase,yes,?¸ì–´?™ê³¼?¬ë¦¬?¤í—˜_Bì¡?ê¸°ë§ê³¼ì œ?©ì‹¬ë¦¬ì‹¤??osexp,E:\2023?„ë„ 1?™ê¸°\?¸ì–´?™ê³¼?¬ë¦¬?¤í—˜,no,mono,no,18,no,black,no,no,768,psycho,95,95,0,E:\2023?„ë„ 1?™ê¸°\?¸ì–´?™ê³¼?¬ë¦¬?¤í—˜\quickrun.csv,psycho,Lentiform Loewenfeld,3.3.14,no,"ë¶?,natural""",similar-environmental,0,None,NA,a,NA,space,None,a,0.016900012,NA,2593.109,NA,6461.0581,0.016900012,1374.4381,2,psycho,1024,2,48000,-16,experiment,999,odd,"?Œí™”ê¸?,artifactual""",NA,231327.5504,16432.6265,16432.5808,NA,13838.4886,2882.2141,16432.1404,NA,230612.5659,2930.4788,232808.5025,232809.0228,9392.6066,230819.4521,NA,231432.892,230604.5115,Extended template,0,1.613699947,96,yes,1024,,
0,0,0.016805154,0.016805154,white,yes,psycho,psycho,psycho,0,uniform,0,undefined,0,n,1,0,99,1,1,0,0,0,0,NA,99,0,99,99,0,99,1,99,99,Sun Dec  3 01:03:01 2023,A template containing a practice and an experimental phase,yes,?¸ì–´?™ê³¼?¬ë¦¬?¤í—˜_Bì¡?ê¸°ë§ê³¼ì œ?©ì‹¬ë¦¬ì‹¤??osexp,E:\2023?„ë„ 1?™ê¸°\?¸ì–´?™ê³¼?¬ë¦¬?¤í—˜,no,mono,no,18,no,black,no,no,768,psycho,96,96,0,E:\2023?„ë„ 1?™ê¸°\?¸ì–´?™ê³¼?¬ë¦¬?¤í—˜\quickrun.csv,psycho,Lentiform Loewenfeld,3.3.14,no,?ì°¨,artifactual,no-correlation,0,None,NA,a,NA,space,None,n,0.016400008,NA,2593.109,NA,6461.0581,0.016400008,986.1646,2,psycho,1024,2,48000,-16,experiment,999,odd,"??,natural""",NA,233615.6881,16432.6265,16432.5808,NA,13838.4886,2882.2141,16432.1404,NA,232900.3837,2930.4788,234708.9271,234709.4465,9392.6066,233106.2571,NA,233721.2365,232884.5918,Extended template,0,1.630099956,97,yes,1024,
0,0,0.016804081,0.016804081,white,yes,psycho,psycho,psycho,0,uniform,0,undefined,0,n,1,0,100,1,1,0,0,0,0,NA,100,0,100,100,0,100,1,100,100,Sun Dec  3 01:03:01 2023,A template containing a practice and an experimental phase,yes,?¸ì–´?™ê³¼?¬ë¦¬?¤í—˜_Bì¡?ê¸°ë§ê³¼ì œ?©ì‹¬ë¦¬ì‹¤??osexp,E:\2023?„ë„ 1?™ê¸°\?¸ì–´?™ê³¼?¬ë¦¬?¤í—˜,no,mono,no,18,no,black,no,no,768,psycho,97,97,0,E:\2023?„ë„ 1?™ê¸°\?¸ì–´?™ê³¼?¬ë¦¬?¤í—˜\quickrun.csv,psycho,Lentiform Loewenfeld,3.3.14,no,?¥ìŠˆ,non-word,non-word,0,None,NA,a,NA,space,None,n,0.016700011,NA,2593.109,NA,6461.0581,0.016700011,1081.56,2,psycho,1024,2,48000,-16,experiment,999,odd,"?¤ëŒì¥?,natural""",NA,235520.335,16432.6265,16432.5808,NA,13838.4886,2882.2141,16432.1404,NA,234796.8205,2930.4788,236709.0333,236709.5536,9392.6066,235012.1105,NA,235625.7761,234786.0468,Extended template,0,1.646799967,98,yes,1024,
0,0,0.016785858,0.016785858,white,yes,psycho,psycho,psycho,0,uniform,0,undefined,0,n,1,0,101,1,1,0,0,0,0,NA,101,0,101,101,0,101,1,101,101,Sun Dec  3 01:03:01 2023,A template containing a practice and an experimental phase,yes,?¸ì–´?™ê³¼?¬ë¦¬?¤í—˜_Bì¡?ê¸°ë§ê³¼ì œ?©ì‹¬ë¦¬ì‹¤??osexp,E:\2023?„ë„ 1?™ê¸°\?¸ì–´?™ê³¼?¬ë¦¬?¤í—˜,no,mono,no,18,no,black,no,no,768,psycho,98,98,0,E:\2023?„ë„ 1?™ê¸°\?¸ì–´?™ê³¼?¬ë¦¬?¤í—˜\quickrun.csv,psycho,Lentiform Loewenfeld,3.3.14,no,?œì–‘,natural,same phoneme,0,None,NA,a,NA,space,None,n,0.014999998,NA,2593.109,NA,6461.0581,0.014999998,1293.5216,2,psycho,1024,2,48000,-16,experiment,999,odd,?œí’,natural,NA,237508.6363,16432.6265,16432.5808,NA,13838.4886,2882.2141,16432.1404,NA,236792.9373,2930.4788,238908.4233,238908.9442,9392.6066,236999.8748,NA,237613.8888,236784.4888,Extended template,0,1.661799964,99,yes,1024
0,0,0.01679,0.01679,white,yes,psycho,psycho,psycho,0,uniform,0,undefined,0,n,1,0,102,1,1,0,0,0,0,NA,102,0,102,102,0,102,1,102,102,Sun Dec  3 01:03:01 2023,A template containing a practice and an experimental phase,yes,?¸ì–´?™ê³¼?¬ë¦¬?¤í—˜_Bì¡?ê¸°ë§ê³¼ì œ?©ì‹¬ë¦¬ì‹¤??osexp,E:\2023?„ë„ 1?™ê¸°\?¸ì–´?™ê³¼?¬ë¦¬?¤í—˜,no,mono,no,18,no,black,no,no,768,psycho,99,99,0,E:\2023?„ë„ 1?™ê¸°\?¸ì–´?™ê³¼?¬ë¦¬?¤í—˜\quickrun.csv,psycho,Lentiform Loewenfeld,3.3.14,no,ëª¨ë˜,natural,similar-environmental,0,None,NA,a,NA,space,None,n,0.017200015,NA,2593.109,NA,6461.0581,0.017200015,1568.8308,2,psycho,1024,2,48000,-16,experiment,999,odd,?ê°ˆ,natural,NA,239713.0493,16432.6265,16432.5808,NA,13838.4886,2882.2141,16432.1404,NA,238997.4714,2930.4788,241388.3431,241389.1851,9392.6066,239204.2018,NA,239818.4902,238985.2812,Extended template,0,1.678999979,100,yes,1024
0,0,0.0168,0.0168,white,yes,psycho,psycho,psycho,0,uniform,0,undefined,0,a,1,0,103,1,1,0,0,0,0,NA,103,0,103,103,0,103,1,103,103,Sun Dec  3 01:03:01 2023,A template containing a practice and an experimental phase,yes,?¸ì–´?™ê³¼?¬ë¦¬?¤í—˜_Bì¡?ê¸°ë§ê³¼ì œ?©ì‹¬ë¦¬ì‹¤??osexp,E:\2023?„ë„ 1?™ê¸°\?¸ì–´?™ê³¼?¬ë¦¬?¤í—˜,no,mono,no,18,no,black,no,no,768,psycho,100,100,0,E:\2023?„ë„ 1?™ê¸°\?¸ì–´?™ê³¼?¬ë¦¬?¤í—˜\quickrun.csv,psycho,Lentiform Loewenfeld,3.3.14,no,?í™”,artifactual,similar-environmental,0,None,NA,a,NA,space,None,a,0.017800019,NA,2593.109,NA,6461.0581,0.017800019,1222.1021,2,psycho,1024,2,48000,-16,experiment,999,odd,"?œë¼ë§?,artifactual""",NA,242200.0217,16432.6265,16432.5808,NA,13838.4886,2882.2141,16432.1404,NA,241476.379,2930.4788,243528.492,243529.0283,9392.6066,241692.4841,NA,242305.2355,241466.732,Extended template,0,1.696799998,101,yes,1024,
0,0,0.016786275,0.016786275,white,yes,psycho,psycho,psycho,0,uniform,0,undefined,0,a,1,0,104,1,1,0,0,0,0,NA,104,0,104,104,0,104,1,104,104,Sun Dec  3 01:03:01 2023,A template containing a practice and an experimental phase,yes,?¸ì–´?™ê³¼?¬ë¦¬?¤í—˜_Bì¡?ê¸°ë§ê³¼ì œ?©ì‹¬ë¦¬ì‹¤??osexp,E:\2023?„ë„ 1?™ê¸°\?¸ì–´?™ê³¼?¬ë¦¬?¤í—˜,no,mono,no,18,no,black,no,no,768,psycho,101,101,0,E:\2023?„ë„ 1?™ê¸°\?¸ì–´?™ê³¼?¬ë¦¬?¤í—˜\quickrun.csv,psycho,Lentiform Loewenfeld,3.3.14,no,"? ì„¤??,non-word""",non-word,0,None,NA,a,NA,space,None,a,0.015400001,NA,2593.109,NA,6461.0581,0.015400001,4823.8781,2,psycho,1024,2,48000,-16,experiment,999,odd,?œê³„,artifactual,NA,244337.9538,16432.6265,16432.5808,NA,13838.4886,2882.2141,16432.1404,NA,243614.1487,2930.4788,249268.8832,249269.4215,9392.6066,243830.156,NA,244443.4893,243606.5998,Extended template,0,1.712199999,102,yes,1024,
0,0,0.016779612,0.016779612,white,yes,psycho,psycho,psycho,0,uniform,0,undefined,0,n,1,0,105,1,1,0,0,0,0,NA,105,0,105,105,0,105,1,105,105,Sun Dec  3 01:03:01 2023,A template containing a practice and an experimental phase,yes,?¸ì–´?™ê³¼?¬ë¦¬?¤í—˜_Bì¡?ê¸°ë§ê³¼ì œ?©ì‹¬ë¦¬ì‹¤??osexp,E:\2023?„ë„ 1?™ê¸°\?¸ì–´?™ê³¼?¬ë¦¬?¤í—˜,no,mono,no,18,no,black,no,no,768,psycho,102,102,0,E:\2023?„ë„ 1?™ê¸°\?¸ì–´?™ê³¼?¬ë¦¬?¤í—˜\quickrun.csv,psycho,Lentiform Loewenfeld,3.3.14,no,"?ìƒˆê³?,non-word""",non-word,0,None,NA,a,NA,space,None,n,0.016100006,NA,2593.109,NA,6461.0581,0.016100006,2271.6654,2,psycho,1024,2,48000,-16,experiment,999,odd,"?˜ë­‡??,natural""",NA,250077.9538,16432.6265,16432.5808,NA,13838.4886,2882.2141,16432.1404,NA,249362.3594,2930.4788,252456.9754,252457.5175,9392.6066,249569.0557,NA,250183.6691,249348.2474,Extended template,0,1.728300005,103,yes,1024,,
0,0,0.016776923,0.016776923,white,yes,psycho,psycho,psycho,0,uniform,0,undefined,0,x,1,0,106,1,1,0,0,0,0,NA,106,0,106,106,0,106,1,106,106,Sun Dec  3 01:03:01 2023,A template containing a practice and an experimental phase,yes,?¸ì–´?™ê³¼?¬ë¦¬?¤í—˜_Bì¡?ê¸°ë§ê³¼ì œ?©ì‹¬ë¦¬ì‹¤??osexp,E:\2023?„ë„ 1?™ê¸°\?¸ì–´?™ê³¼?¬ë¦¬?¤í—˜,no,mono,no,18,no,black,no,no,768,psycho,103,103,0,E:\2023?„ë„ 1?™ê¸°\?¸ì–´?™ê³¼?¬ë¦¬?¤í—˜\quickrun.csv,psycho,Lentiform Loewenfeld,3.3.14,no,"?‰ì¥ê³?,artifactual""",non-word,0,None,NA,a,NA,space,None,x,0.016500009,NA,2593.109,NA,6461.0581,0.016500009,1632.9341,2,psycho,1024,2,48000,-16,experiment,999,odd,"ë¡œë°©??,non-word""",NA,253264.1117,16432.6265,16432.5808,NA,13838.4886,2882.2141,16432.1404,NA,252548.4593,2930.4788,255007.8143,255008.3594,9392.6066,252755.4039,NA,253369.5954,252533.8362,Extended template,0,1.744800014,104,yes,1024,,
0,0,0.016782856,0.016782856,white,yes,psycho,psycho,psycho,0,uniform,0,undefined,0,a,1,0,107,1,1,0,0,0,0,NA,107,0,107,107,0,107,1,107,107,Sun Dec  3 01:03:01 2023,A template containing a practice and an experimental phase,yes,?¸ì–´?™ê³¼?¬ë¦¬?¤í—˜_Bì¡?ê¸°ë§ê³¼ì œ?©ì‹¬ë¦¬ì‹¤??osexp,E:\2023?„ë„ 1?™ê¸°\?¸ì–´?™ê³¼?¬ë¦¬?¤í—˜,no,mono,no,18,no,black,no,no,768,psycho,104,104,0,E:\2023?„ë„ 1?™ê¸°\?¸ì–´?™ê³¼?¬ë¦¬?¤í—˜\quickrun.csv,psycho,Lentiform Loewenfeld,3.3.14,no,ë¡œì¼“,artifactual,same phoneme,0,None,NA,a,NA,space,None,a,0.0173999,NA,2593.109,NA,6461.0581,0.0173999,1812.1162,2,psycho,1024,2,48000,-16,experiment,999,odd,ë¡œë´‡,artifactual,NA,255817.6132,16432.6265,16432.5808,NA,13838.4886,2882.2141,16432.1404,NA,255093.8119,2930.4788,257736.933,257737.4956,9392.6066,255310.9837,NA,255923.2439,255084.7498,Extended template,0,1.762199914,105,yes,1024
0,0,0.016784905,0.016784905,white,yes,psycho,psycho,psycho,0,uniform,0,undefined,0,x,1,0,108,1,1,0,0,0,0,NA,108,0,108,108,0,108,1,108,108,Sun Dec  3 01:03:01 2023,A template containing a practice and an experimental phase,yes,?¸ì–´?™ê³¼?¬ë¦¬?¤í—˜_Bì¡?ê¸°ë§ê³¼ì œ?©ì‹¬ë¦¬ì‹¤??osexp,E:\2023?„ë„ 1?™ê¸°\?¸ì–´?™ê³¼?¬ë¦¬?¤í—˜,no,mono,no,18,no,black,no,no,768,psycho,105,105,0,E:\2023?„ë„ 1?™ê¸°\?¸ì–´?™ê³¼?¬ë¦¬?¤í—˜\quickrun.csv,psycho,Lentiform Loewenfeld,3.3.14,no,ë²¨íŠ¸,artifactual,non-word,0,None,NA,a,NA,space,None,x,0.017000013,NA,2593.109,NA,6461.0581,0.017000013,1119.34,2,psycho,1024,2,48000,-16,experiment,999,odd,ì§„ì›¬,non-word,NA,258554.6468,16432.6265,16432.5808,NA,13838.4886,2882.2141,16432.1404,NA,257822.2622,2930.4788,259781.0984,259781.6609,9392.6066,258046.5278,NA,258660.0807,257813.3233,Extended template,0,1.779199927,106,yes,1024
0,0,0.016781308,0.016781308,white,yes,psycho,psycho,psycho,0,uniform,0,undefined,0,n,1,0,109,1,1,0,0,0,0,NA,109,0,109,109,0,109,1,109,109,Sun Dec  3 01:03:01 2023,A template containing a practice and an experimental phase,yes,?¸ì–´?™ê³¼?¬ë¦¬?¤í—˜_Bì¡?ê¸°ë§ê³¼ì œ?©ì‹¬ë¦¬ì‹¤??osexp,E:\2023?„ë„ 1?™ê¸°\?¸ì–´?™ê³¼?¬ë¦¬?¤í—˜,no,mono,no,18,no,black,no,no,768,psycho,106,106,0,E:\2023?„ë„ 1?™ê¸°\?¸ì–´?™ê³¼?¬ë¦¬?¤í—˜\quickrun.csv,psycho,Lentiform Loewenfeld,3.3.14,no,"??,natural""",similar-environmental,0,None,NA,a,NA,space,None,n,0.016400008,NA,2593.109,NA,6461.0581,0.016400008,3921.9344,2,psycho,1024,2,48000,-16,experiment,999,odd,ê³„ê³¡,natural,NA,260592.549,16432.6265,16432.5808,NA,13838.4886,2882.2141,16432.1404,NA,259868.825,2930.4788,264620.9733,264621.5358,9392.6066,260084.6023,NA,260697.4384,259856.3907,Extended template,0,1.795599936,107,yes,1024,
0,0,0.016781481,0.016781481,white,yes,psycho,psycho,psycho,0,uniform,0,undefined,0,a,1,0,110,1,1,0,0,0,0,NA,110,0,110,110,0,110,1,110,110,Sun Dec  3 01:03:01 2023,A template containing a practice and an experimental phase,yes,?¸ì–´?™ê³¼?¬ë¦¬?¤í—˜_Bì¡?ê¸°ë§ê³¼ì œ?©ì‹¬ë¦¬ì‹¤??osexp,E:\2023?„ë„ 1?™ê¸°\?¸ì–´?™ê³¼?¬ë¦¬?¤í—˜,no,mono,no,18,no,black,no,no,768,psycho,107,107,0,E:\2023?„ë„ 1?™ê¸°\?¸ì–´?™ê³¼?¬ë¦¬?¤í—˜\quickrun.csv,psycho,Lentiform Loewenfeld,3.3.14,no,ë¡œë´‡,artifactual,same phoneme,0,None,NA,a,NA,space,None,a,0.016800012,NA,2593.109,NA,6461.0581,0.016800012,1229.768,2,psycho,1024,2,48000,-16,experiment,999,odd,ë¡œì¼“,artifactual,NA,265432.1777,16432.6265,16432.5808,NA,13838.4886,2882.2141,16432.1404,NA,264710.0117,2930.4788,266769.1062,266769.6737,9392.6066,264925.8811,NA,265537.5428,264696.7344,Extended template,0,1.812399947,108,yes,1024
0,0,0.016781651,0.016781651,white,yes,psycho,psycho,psycho,0,uniform,0,undefined,0,n,1,0,111,1,1,0,0,0,0,NA,111,0,111,111,0,111,1,111,111,Sun Dec  3 01:03:01 2023,A template containing a practice and an experimental phase,yes,?¸ì–´?™ê³¼?¬ë¦¬?¤í—˜_Bì¡?ê¸°ë§ê³¼ì œ?©ì‹¬ë¦¬ì‹¤??osexp,E:\2023?„ë„ 1?™ê¸°\?¸ì–´?™ê³¼?¬ë¦¬?¤í—˜,no,mono,no,18,no,black,no,no,768,psycho,108,108,0,E:\2023?„ë„ 1?™ê¸°\?¸ì–´?™ê³¼?¬ë¦¬?¤í—˜\quickrun.csv,psycho,Lentiform Loewenfeld,3.3.14,no,"ê°€??,natural""",similar-environmental,0,None,NA,a,NA,space,None,n,0.016800012,NA,2593.109,NA,6461.0581,0.016800012,1151.1854,2,psycho,1024,2,48000,-16,experiment,999,odd,?™ì—½,natural,NA,267569.8813,16432.6265,16432.5808,NA,13838.4886,2882.2141,16432.1404,NA,266856.3347,2930.4788,268833.1025,268833.6751,9392.6066,267063.8853,NA,267680.1182,266844.6398,Extended template,0,1.829199959,109,yes,1024,
0,0,0.016776363,0.016776363,white,yes,psycho,psycho,psycho,0,uniform,0,undefined,0,a,1,0,112,1,1,0,0,0,0,NA,112,0,112,112,0,112,1,112,112,Sun Dec  3 01:03:01 2023,A template containing a practice and an experimental phase,yes,?¸ì–´?™ê³¼?¬ë¦¬?¤í—˜_Bì¡?ê¸°ë§ê³¼ì œ?©ì‹¬ë¦¬ì‹¤??osexp,E:\2023?„ë„ 1?™ê¸°\?¸ì–´?™ê³¼?¬ë¦¬?¤í—˜,no,mono,no,18,no,black,no,no,768,psycho,109,109,0,E:\2023?„ë„ 1?™ê¸°\?¸ì–´?™ê³¼?¬ë¦¬?¤í—˜\quickrun.csv,psycho,Lentiform Loewenfeld,3.3.14,no,ë°”ë‹¤,natural,same phoneme,0,None,NA,a,NA,space,None,a,0.016200007,NA,2593.109,NA,6461.0581,0.016200007,718.9002,2,psycho,1024,2,48000,-16,experiment,999,odd,"ë°”êµ¬??,artifactual""",NA,269634.8142,16432.6265,16432.5808,NA,13838.4886,2882.2141,16432.1404,NA,268919.3065,2930.4788,270460.4196,270460.9938,9392.6066,269127.1626,NA,269740.4324,268908.8328,Extended template,0,1.845399966,110,yes,1024,
