"acc","accuracy","average_response_time","avg_rt","background","bidi","canvas_backend","clock_backend","color_backend","compensation","coordinates","correct","correct_instructions","correct_keyboard_response","correct_response","correct_target","count_about_this_template","count_blank","count_block_loop","count_block_sequence","count_end_of_experiment","count_end_of_practice","count_experiment","count_experimental_loop","count_feedback","count_fixation","count_instructions","count_keyboard_response","count_logger","count_practice_loop","count_prime","count_reset_feedback","count_target","count_trial_sequence","datetime","description","disable_garbage_collection","experiment_file","experiment_path","font_bold","font_family","font_italic","font_size","font_underline","foreground","form_clicks","fullscreen","height","keyboard_backend","live_row","live_row_block_loop","live_row_practice_loop","logfile","mouse_backend","opensesame_codename","opensesame_version","practice","prime","prime_condition","relation","repeat_cycle","response","response_end_of_experiment","response_end_of_practice","response_feedback","response_instructions","response_keyboard_response","response_target","response_time","response_time_end_of_experiment","response_time_end_of_practice","response_time_feedback","response_time_instructions","response_time_keyboard_response","response_time_target","round_decimals","sampler_backend","sound_buf_size","sound_channels","sound_freq","sound_sample_size","start","subject_nr","subject_parity","target","target_condition","time_about_this_template","time_blank","time_block_loop","time_block_sequence","time_end_of_experiment","time_end_of_practice","time_experiment","time_experimental_loop","time_feedback","time_fixation","time_instructions","time_keyboard_response","time_logger","time_practice_loop","time_prime","time_reset_feedback","time_target","time_trial_sequence","title","total_correct","total_response_time","total_responses","uniform_coordinates","width"
"0","0","0.016200123354792595","0.016200123354792595","white","yes","psycho","psycho","psycho","0","uniform","0","undefined","0","a","1","0","0","0","0","0","0","0","0","NA","0","0","0","0","0","0","0","0","0","Mon Dec  4 16:55:05 2023","A template containing a practice and an experimental phase","yes","언어학과심리실험_B조_기말과제용심리실험.osexp","E:\2023년도 1학기\언어학과심리실험","no","mono","no","18","no","black","no","no","768","psycho","0","0","0","E:\2023년도 1학기\언어학과심리실험\quickrun.csv","psycho","Lentiform Loewenfeld","3.3.14","yes","안음풍","non-word","non-word","0","None","NA","NA","NA","return","None","a","0.016200123354792595","NA","NA","NA","32002.382799983025","0.016200123354792595","7648.55259982869","2","psycho","1024","2","48000","-16","experiment","999","odd","의자","artifactual","NA","35576.55299990438","34766.949999844655","34766.75369986333","NA","NA","2685.609399806708","NA","NA","34853.11349993572","2762.089799856767","43333.17109989002","43333.27089995146","34766.17620000616","35067.98159983009","NA","35684.03190001845","34838.13099982217","Extended template","0","0.016200123354792595","1","yes","1024"
"0","0","0.023300061002373695","0.023300061002373695","white","yes","psycho","psycho","psycho","0","uniform","0","undefined","0","n","1","0","1","0","0","0","0","0","0","NA","1","0","1","1","0","1","0","1","1","Mon Dec  4 16:55:05 2023","A template containing a practice and an experimental phase","yes","언어학과심리실험_B조_기말과제용심리실험.osexp","E:\2023년도 1학기\언어학과심리실험","no","mono","no","18","no","black","no","no","768","psycho","1","1","0","E:\2023년도 1학기\언어학과심리실험\quickrun.csv","psycho","Lentiform Loewenfeld","3.3.14","yes","경주","artifactual","no-correlation","0","None","NA","NA","NA","return","None","n","0.030399998649954796","NA","NA","NA","32002.382799983025","0.030399998649954796","1651.8966001458466","2","psycho","1024","2","48000","-16","experiment","999","odd","소나무","natural","NA","44160.98579997197","34766.949999844655","34766.75369986333","NA","NA","2685.609399806708","NA","NA","43437.51459987834","2762.089799856767","45921.67259985581","45921.8350998126","34766.17620000616","43653.60809979029","NA","44268.55209982023","43428.55850001797","Extended template","0","0.04660012200474739","2","yes","1024"
"0","0","0.021633381644884746","0.021633381644884746","white","yes","psycho","psycho","psycho","0","uniform","0","undefined","0","a","1","0","2","0","0","0","0","0","0","NA","2","0","2","2","0","2","0","2","2","Mon Dec  4 16:55:05 2023","A template containing a practice and an experimental phase","yes","언어학과심리실험_B조_기말과제용심리실험.osexp","E:\2023년도 1학기\언어학과심리실험","no","mono","no","18","no","black","no","no","768","psycho","2","2","0","E:\2023년도 1학기\언어학과심리실험\quickrun.csv","psycho","Lentiform Loewenfeld","3.3.14","yes","산","natural","similar-environmental","0","None","NA","NA","NA","return","None","a","0.018300022929906845","NA","NA","NA","32002.382799983025","0.018300022929906845","3107.786800013855","2","psycho","1024","2","48000","-16","experiment","999","odd","오두막","artifactual","NA","46749.06079983339","34766.949999844655","34766.75369986333","NA","NA","2685.609399806708","NA","NA","46023.89599988237","2762.089799856767","49973.33969990723","49973.456899868324","34766.17620000616","46239.789799787104","NA","46864.639999810606","46010.57539996691","Extended template","0","0.06490014493465424","3","yes","1024"
"0","0","0.016399892047047615","0.016399892047047615","white","yes","psycho","psycho","psycho","0","uniform","0","undefined","0","x","1","0","3","1","1","0","0","0","0","NA","3","0","3","3","0","3","1","3","3","Mon Dec  4 16:55:05 2023","A template containing a practice and an experimental phase","yes","언어학과심리실험_B조_기말과제용심리실험.osexp","E:\2023년도 1학기\언어학과심리실험","no","mono","no","18","no","black","no","no","768","psycho","0","0","0","E:\2023년도 1학기\언어학과심리실험\quickrun.csv","psycho","Lentiform Loewenfeld","3.3.14","no","냉장고","artifactual","non-word","0","None","NA","return","NA","return","None","x","0.016399892047047615","NA","7246.408700011671","NA","32002.382799983025","0.016399892047047615","4602.867799811065","2","psycho","1024","2","48000","-16","experiment","999","odd","로방삭","non-word","NA","58085.665199905634","57314.34569996782","57314.29719994776","NA","50066.05329993181","2685.609399806708","57313.852299936116","NA","57362.168999854475","2762.089799856767","62797.667199978605","62797.76469990611","34766.17620000616","57578.588999807835","NA","58193.523599999025","57353.7816000171","Extended template","0","0.016399892047047615","1","yes","1024"
"0","0","0.015849946066737175","0.015849946066737175","white","yes","psycho","psycho","psycho","0","uniform","0","undefined","0","n","1","0","4","1","1","0","0","0","0","NA","4","0","4","4","0","4","1","4","4","Mon Dec  4 16:55:05 2023","A template containing a practice and an experimental phase","yes","언어학과심리실험_B조_기말과제용심리실험.osexp","E:\2023년도 1학기\언어학과심리실험","no","mono","no","18","no","black","no","no","768","psycho","1","1","0","E:\2023년도 1학기\언어학과심리실험\quickrun.csv","psycho","Lentiform Loewenfeld","3.3.14","no","물고기","natural","inclusive","0","None","NA","return","NA","return","None","n","0.015300000086426735","NA","7246.408700011671","NA","32002.382799983025","0.015300000086426735","1965.525700012222","2","psycho","1024","2","48000","-16","experiment","999","odd","연어","natural","NA","63618.019399931654","57314.34569996782","57314.29719994776","NA","50066.05329993181","2685.609399806708","57313.852299936116","NA","62894.542599795386","2762.089799856767","65693.76329984516","65693.86120000854","34766.17620000616","63109.85269979574","NA","63726.97289986536","62886.90699986182","Extended template","0","0.03169989213347435","2","yes","1024"
"0","0","0.01650000922381878","0.01650000922381878","white","yes","psycho","psycho","psycho","0","uniform","0","undefined","0","a","1","0","5","1","1","0","0","0","0","NA","5","0","5","5","0","5","1","5","5","Mon Dec  4 16:55:05 2023","A template containing a practice and an experimental phase","yes","언어학과심리실험_B조_기말과제용심리실험.osexp","E:\2023년도 1학기\언어학과심리실험","no","mono","no","18","no","black","no","no","768","psycho","2","2","0","E:\2023년도 1학기\언어학과심리실험\quickrun.csv","psycho","Lentiform Loewenfeld","3.3.14","no","도미노","artifactual","same phoneme","0","None","NA","return","NA","return","None","a","0.017800135537981987","NA","7246.408700011671","NA","32002.382799983025","0.017800135537981987","1143.9260998740792","2","psycho","1024","2","48000","-16","experiment","999","odd","도서","artifactual","NA","66529.780899873","57314.34569996782","57314.29719994776","NA","50066.05329993181","2685.609399806708","57313.852299936116","NA","65805.64359994605","2762.089799856767","67792.36439988017","67792.49599995092","34766.17620000616","66021.23539987952","NA","66637.51369994134","65795.57779990137","Extended template","0","0.04950002767145634","3","yes","1024"
"0","0","0.01637497916817665","0.01637497916817665","white","yes","psycho","psycho","psycho","0","uniform","0","undefined","0","n","1","0","6","1","1","0","0","0","0","NA","6","0","6","6","0","6","1","6","6","Mon Dec  4 16:55:05 2023","A template containing a practice and an experimental phase","yes","언어학과심리실험_B조_기말과제용심리실험.osexp","E:\2023년도 1학기\언어학과심리실험","no","mono","no","18","no","black","no","no","768","psycho","3","3","0","E:\2023년도 1학기\언어학과심리실험\quickrun.csv","psycho","Lentiform Loewenfeld","3.3.14","no","오일","natural","same phoneme","0","None","NA","return","NA","return","None","n","0.015999889001250267","NA","7246.408700011671","NA","32002.382799983025","0.015999889001250267","4267.260299995542","2","psycho","1024","2","48000","-16","experiment","999","odd","오리","natural","NA","68609.26289996132","57314.34569996782","57314.29719994776","NA","50066.05329993181","2685.609399806708","57313.852299936116","NA","67893.76589981839","2762.089799856767","72985.51709996536","72985.63559981994","34766.17620000616","68100.68159992807","NA","68717.17099985108","67881.75339996815","Extended template","0","0.0654999166727066","4","yes","1024"
"0","0","0.017379969358444214","0.017379969358444214","white","yes","psycho","psycho","psycho","0","uniform","0","undefined","0","a","1","0","7","1","1","0","0","0","0","NA","7","0","7","7","0","7","1","7","7","Mon Dec  4 16:55:05 2023","A template containing a practice and an experimental phase","yes","언어학과심리실험_B조_기말과제용심리실험.osexp","E:\2023년도 1학기\언어학과심리실험","no","mono","no","18","no","black","no","no","768","psycho","4","4","0","E:\2023년도 1학기\언어학과심리실험\quickrun.csv","psycho","Lentiform Loewenfeld","3.3.14","no","바다","natural","similar-environmental","0","None","NA","return","NA","return","None","a","0.021399930119514465","NA","7246.408700011671","NA","32002.382799983025","0.021399930119514465","1451.6633998136967","2","psycho","1024","2","48000","-16","experiment","999","odd","배","artifactual","NA","73793.02889993414","57314.34569996782","57314.29719994776","NA","50066.05329993181","2685.609399806708","57313.852299936116","NA","73075.8054999169","2762.089799856767","75361.7275999859","75361.85119999573","34766.17620000616","73282.92399994098","NA","73908.85080001317","73067.76029989123","Extended template","0","0.08689984679222107","5","yes","1024"
"0","0","0.017033307813107967","0.017033307813107967","white","yes","psycho","psycho","psycho","0","uniform","0","undefined","0","a","1","0","8","1","1","0","0","0","0","NA","8","0","8","8","0","8","1","8","8","Mon Dec  4 16:55:05 2023","A template containing a practice and an experimental phase","yes","언어학과심리실험_B조_기말과제용심리실험.osexp","E:\2023년도 1학기\언어학과심리실험","no","mono","no","18","no","black","no","no","768","psycho","5","5","0","E:\2023년도 1학기\언어학과심리실험\quickrun.csv","psycho","Lentiform Loewenfeld","3.3.14","no","프린터","artifactual","similar-environmental","0","None","NA","return","NA","return","None","a","0.015300000086426735","NA","7246.408700011671","NA","32002.382799983025","0.015300000086426735","1188.0338001064956","2","psycho","1024","2","48000","-16","experiment","999","odd","종이","artifactual","NA","76187.21289979294","57314.34569996782","57314.29719994776","NA","50066.05329993181","2685.609399806708","57313.852299936116","NA","75463.87619990855","2762.089799856767","77485.71379994974","77485.8390998561","34766.17620000616","75679.63179992512","NA","76296.34079989046","75453.97079992108","Extended template","0","0.1021998468786478","6","yes","1024"
"0","0","0.01684283571583884","0.01684283571583884","white","yes","psycho","psycho","psycho","0","uniform","0","undefined","0","a","1","0","9","1","1","0","0","0","0","NA","9","0","9","9","0","9","1","9","9","Mon Dec  4 16:55:05 2023","A template containing a practice and an experimental phase","yes","언어학과심리실험_B조_기말과제용심리실험.osexp","E:\2023년도 1학기\언어학과심리실험","no","mono","no","18","no","black","no","no","768","psycho","6","6","0","E:\2023년도 1학기\언어학과심리실험\quickrun.csv","psycho","Lentiform Loewenfeld","3.3.14","no","경주","artifactual","no-correlation","0","None","NA","return","NA","return","None","a","0.015700003132224083","NA","7246.408700011671","NA","32002.382799983025","0.015700003132224083","1514.9084001313895","2","psycho","1024","2","48000","-16","experiment","999","odd","버스","artifactual","NA","78325.11539990082","57314.34569996782","57314.29719994776","NA","50066.05329993181","2685.609399806708","57313.852299936116","NA","77593.39249995537","2762.089799856767","79949.84989985824","79949.9728998635","34766.17620000616","77809.82550000772","NA","78433.50499984808","77584.80219985358","Extended template","0","0.11789985001087189","7","yes","1024"
"0","0","0.016962498193606734","0.016962498193606734","white","yes","psycho","psycho","psycho","0","uniform","0","undefined","0","a","1","0","10","1","1","0","0","0","0","NA","10","0","10","10","0","10","1","10","10","Mon Dec  4 16:55:05 2023","A template containing a practice and an experimental phase","yes","언어학과심리실험_B조_기말과제용심리실험.osexp","E:\2023년도 1학기\언어학과심리실험","no","mono","no","18","no","black","no","no","768","psycho","7","7","0","E:\2023년도 1학기\언어학과심리실험\quickrun.csv","psycho","Lentiform Loewenfeld","3.3.14","no","가방","artifactual","no-correlation","0","None","NA","return","NA","return","None","a","0.017800135537981987","NA","7246.408700011671","NA","32002.382799983025","0.017800135537981987","2060.3145000059158","2","psycho","1024","2","48000","-16","experiment","999","odd","기차","artifactual","NA","80779.50869989581","57314.34569996782","57314.29719994776","NA","50066.05329993181","2685.609399806708","57313.852299936116","NA","80047.42959979922","2762.089799856767","82957.74919982068","82957.89560000412","34766.17620000616","80263.80599988624","NA","80896.0946998559","80034.91509985179","Extended template","0","0.13569998554885387","8","yes","1024"
"0","0","0.01718887748817603","0.01718887748817603","white","yes","psycho","psycho","psycho","0","uniform","0","undefined","0","n","1","0","11","1","1","0","0","0","0","NA","11","0","11","11","0","11","1","11","11","Mon Dec  4 16:55:05 2023","A template containing a practice and an experimental phase","yes","언어학과심리실험_B조_기말과제용심리실험.osexp","E:\2023년도 1학기\언어학과심리실험","no","mono","no","18","no","black","no","no","768","psycho","8","8","0","E:\2023년도 1학기\언어학과심리실험\quickrun.csv","psycho","Lentiform Loewenfeld","3.3.14","no","늪","natural","similar-environmental","0","None","NA","return","NA","return","None","n","0.018999911844730377","NA","7246.408700011671","NA","32002.382799983025","0.018999911844730377","1068.2272999547422","2","psycho","1024","2","48000","-16","experiment","999","odd","악어","natural","NA","83774.08779994585","57314.34569996782","57314.29719994776","NA","50066.05329993181","2685.609399806708","57313.852299936116","NA","83058.09749988839","2762.089799856767","84955.17600001767","84955.32760000788","34766.17620000616","83264.78659990244","NA","83881.85089989565","83047.9835998267","Extended template","0","0.15469989739358425","9","yes","1024"
"0","0","0.017319992184638977","0.017319992184638977","white","yes","psycho","psycho","psycho","0","uniform","0","undefined","0","x","1","0","12","1","1","0","0","0","0","NA","12","0","12","12","0","12","1","12","12","Mon Dec  4 16:55:05 2023","A template containing a practice and an experimental phase","yes","언어학과심리실험_B조_기말과제용심리실험.osexp","E:\2023년도 1학기\언어학과심리실험","no","mono","no","18","no","black","no","no","768","psycho","9","9","0","E:\2023년도 1학기\언어학과심리실험\quickrun.csv","psycho","Lentiform Loewenfeld","3.3.14","no","시계","artifactual","non-word","0","None","NA","return","NA","return","None","x","0.01850002445280552","NA","7246.408700011671","NA","32002.382799983025","0.01850002445280552","3754.278700100258","2","psycho","1024","2","48000","-16","experiment","999","odd","책솜","non-word","NA","85770.64169989899","57314.34569996782","57314.29719994776","NA","50066.05329993181","2685.609399806708","57313.852299936116","NA","85054.38479990698","2762.089799856767","89633.00579995848","89633.15709982999","34766.17620000616","85260.66789985634","NA","85878.04299988784","85045.70049978793","Extended template","0","0.17319992184638977","10","yes","1024"
"0","0","0.01718182201412591","0.01718182201412591","white","yes","psycho","psycho","psycho","0","uniform","0","undefined","0","n","1","0","13","1","1","0","0","0","0","NA","13","0","13","13","0","13","1","13","13","Mon Dec  4 16:55:05 2023","A template containing a practice and an experimental phase","yes","언어학과심리실험_B조_기말과제용심리실험.osexp","E:\2023년도 1학기\언어학과심리실험","no","mono","no","18","no","black","no","no","768","psycho","10","10","0","E:\2023년도 1학기\언어학과심리실험\quickrun.csv","psycho","Lentiform Loewenfeld","3.3.14","no","세금","artifactual","same phoneme","0","None","NA","return","NA","return","None","n","0.015800120308995247","NA","7246.408700011671","NA","32002.382799983025","0.015800120308995247","1090.8228000625968","2","psycho","1024","2","48000","-16","experiment","999","odd","세포","natural","NA","90461.55949984677","57314.34569996782","57314.29719994776","NA","50066.05329993181","2685.609399806708","57313.852299936116","NA","89738.8687999919","2762.089799856767","91661.88579984009","91662.02589985915","34766.17620000616","89954.54079983756","NA","90569.6570998989","89730.3620998282","Extended template","0","0.18900004215538502","11","yes","1024"
"0","0","0.01850832874576251","0.01850832874576251","white","yes","psycho","psycho","psycho","0","uniform","0","undefined","0","n","0","0","14","1","1","0","0","0","0","NA","14","0","14","14","0","14","1","14","14","Mon Dec  4 16:55:05 2023","A template containing a practice and an experimental phase","yes","언어학과심리실험_B조_기말과제용심리실험.osexp","E:\2023년도 1학기\언어학과심리실험","no","mono","no","18","no","black","no","no","768","psycho","11","11","0","E:\2023년도 1학기\언어학과심리실험\quickrun.csv","psycho","Lentiform Loewenfeld","3.3.14","no","달","artifactual","same phoneme","0","None","NA","return","NA","return","None","a","0.03309990279376507","NA","7246.408700011671","NA","32002.382799983025","0.03309990279376507","1176.909000147134","2","psycho","1024","2","48000","-16","experiment","999","odd","달력","natural","NA","92492.14859982021","57314.34569996782","57314.29719994776","NA","50066.05329993181","2685.609399806708","57313.852299936116","NA","91759.8496999126","2762.089799856767","93778.0432999134","93778.40549987741","34766.17620000616","91976.43729997799","NA","92599.50519981794","91750.9424998425","Extended template","0","0.22209994494915009","12","yes","1024"
"0","0","0.01853075809776783","0.01853075809776783","white","yes","psycho","psycho","psycho","0","uniform","0","undefined","0","n","1","0","15","1","1","0","0","0","0","NA","15","0","15","15","0","15","1","15","15","Mon Dec  4 16:55:05 2023","A template containing a practice and an experimental phase","yes","언어학과심리실험_B조_기말과제용심리실험.osexp","E:\2023년도 1학기\언어학과심리실험","no","mono","no","18","no","black","no","no","768","psycho","12","12","0","E:\2023년도 1학기\언어학과심리실험\quickrun.csv","psycho","Lentiform Loewenfeld","3.3.14","no","꽃","natural","inclusive","0","None","NA","return","NA","return","None","n","0.018799910321831703","NA","7246.408700011671","NA","32002.382799983025","0.018799910321831703","1001.3227998279035","2","psycho","1024","2","48000","-16","experiment","999","odd","해바라기","natural","NA","94604.65110000223","57314.34569996782","57314.29719994776","NA","50066.05329993181","2685.609399806708","57313.852299936116","NA","93882.21549987793","2762.089799856767","95717.40520000458","95717.57659991272","34766.17620000616","94096.94969980046","NA","94715.07799997926","93868.61089989543","Extended template","0","0.2408998552709818","13","yes","1024"
"0","0","0.01833569591066667","0.01833569591066667","white","yes","psycho","psycho","psycho","0","uniform","0","undefined","0","n","1","0","16","1","1","0","0","0","0","NA","16","0","16","16","0","16","1","16","16","Mon Dec  4 16:55:05 2023","A template containing a practice and an experimental phase","yes","언어학과심리실험_B조_기말과제용심리실험.osexp","E:\2023년도 1학기\언어학과심리실험","no","mono","no","18","no","black","no","no","768","psycho","13","13","0","E:\2023년도 1학기\언어학과심리실험\quickrun.csv","psycho","Lentiform Loewenfeld","3.3.14","no","패딩","artifactual","similar-environmental","0","None","NA","return","NA","return","None","n","0.015799887478351593","NA","7246.408700011671","NA","32002.382799983025","0.015799887478351593","1556.8872999865562","2","psycho","1024","2","48000","-16","experiment","999","odd","겨울","natural","NA","96543.90409984626","57314.34569996782","57314.29719994776","NA","50066.05329993181","2685.609399806708","57313.852299936116","NA","95819.05069993809","2762.089799856767","98209.83329997398","98209.98879987746","34766.17620000616","96034.80299981311","NA","96651.53679996729","95805.40039995685","Extended template","0","0.2566997427493334","14","yes","1024"
"0","0","0.018126657232642174","0.018126657232642174","white","yes","psycho","psycho","psycho","0","uniform","0","undefined","0","a","0","0","17","1","1","0","0","0","0","NA","17","0","17","17","0","17","1","17","17","Mon Dec  4 16:55:05 2023","A template containing a practice and an experimental phase","yes","언어학과심리실험_B조_기말과제용심리실험.osexp","E:\2023년도 1학기\언어학과심리실험","no","mono","no","18","no","black","no","no","768","psycho","14","14","0","E:\2023년도 1학기\언어학과심리실험\quickrun.csv","psycho","Lentiform Loewenfeld","3.3.14","no","벌레","natural","same phoneme","0","None","NA","return","NA","return","None","x","0.015200115740299225","NA","7246.408700011671","NA","32002.382799983025","0.015200115740299225","2032.4820999521762","2","psycho","1024","2","48000","-16","experiment","999","odd","발레","artifactual","NA","99038.39649981819","57314.34569996782","57314.29719994776","NA","50066.05329993181","2685.609399806708","57313.852299936116","NA","98305.97250000574","2762.089799856767","101179.04739989899","101179.20349980704","34766.17620000616","98522.61749980971","NA","99143.92809988931","98291.53319983743","Extended template","0","0.2718998584896326","15","yes","1024"
"0","0","0.017981234122999012","0.017981234122999012","white","yes","psycho","psycho","psycho","0","uniform","0","undefined","0","n","1","0","18","1","1","0","0","0","0","NA","18","0","18","18","0","18","1","18","18","Mon Dec  4 16:55:05 2023","A template containing a practice and an experimental phase","yes","언어학과심리실험_B조_기말과제용심리실험.osexp","E:\2023년도 1학기\언어학과심리실험","no","mono","no","18","no","black","no","no","768","psycho","15","15","0","E:\2023년도 1학기\언어학과심리실험\quickrun.csv","psycho","Lentiform Loewenfeld","3.3.14","no","소방서","artifactual","same phoneme","0","None","NA","return","NA","return","None","n","0.015799887478351593","NA","7246.408700011671","NA","32002.382799983025","0.015799887478351593","906.7319999448955","2","psycho","1024","2","48000","-16","experiment","999","odd","소나무","natural","NA","101991.9483999256","57314.34569996782","57314.29719994776","NA","50066.05329993181","2685.609399806708","57313.852299936116","NA","101275.84379981272","2762.089799856767","103005.28379995376","103005.44619979337","34766.17620000616","101483.78179990686","NA","102097.7092999965","101262.28859997354","Extended template","0","0.2876997459679842","16","yes","1024"
"0","0","0.01787646290133981","0.01787646290133981","white","yes","psycho","psycho","psycho","0","uniform","0","undefined","0","n","1","0","19","1","1","0","0","0","0","NA","19","0","19","19","0","19","1","19","19","Mon Dec  4 16:55:05 2023","A template containing a practice and an experimental phase","yes","언어학과심리실험_B조_기말과제용심리실험.osexp","E:\2023년도 1학기\언어학과심리실험","no","mono","no","18","no","black","no","no","768","psycho","16","16","0","E:\2023년도 1학기\언어학과심리실험\quickrun.csv","psycho","Lentiform Loewenfeld","3.3.14","no","다리","artifactual","similar-environmental","0","None","NA","return","NA","return","None","n","0.016200123354792595","NA","7246.408700011671","NA","32002.382799983025","0.016200123354792595","2421.4353000279516","2","psycho","1024","2","48000","-16","experiment","999","odd","강","natural","NA","103821.5915998444","57314.34569996782","57314.29719994776","NA","50066.05329993181","2685.609399806708","57313.852299936116","NA","103106.42999992706","2762.089799856767","106353.58969983645","106353.75549993478","34766.17620000616","103314.40709996969","NA","103930.9735998977","103096.33049997501","Extended template","0","0.3038998693227768","17","yes","1024"
"0","0","0.01778888205687205","0.01778888205687205","white","yes","psycho","psycho","psycho","0","uniform","0","undefined","0","a","1","0","20","1","1","0","0","0","0","NA","20","0","20","20","0","20","1","20","20","Mon Dec  4 16:55:05 2023","A template containing a practice and an experimental phase","yes","언어학과심리실험_B조_기말과제용심리실험.osexp","E:\2023년도 1학기\언어학과심리실험","no","mono","no","18","no","black","no","no","768","psycho","17","17","0","E:\2023년도 1학기\언어학과심리실험\quickrun.csv","psycho","Lentiform Loewenfeld","3.3.14","no","불","natural","similar-environmental","0","None","NA","return","NA","return","None","a","0.016300007700920105","NA","7246.408700011671","NA","32002.382799983025","0.016300007700920105","1241.1799998953938","2","psycho","1024","2","48000","-16","experiment","999","odd","소화기","artifactual","NA","107173.66319987923","57314.34569996782","57314.29719994776","NA","50066.05329993181","2685.609399806708","57313.852299936116","NA","106450.53599984385","2762.089799856767","108521.2154998444","108521.38649998233","34766.17620000616","106666.55609989539","NA","107279.2458999902","106439.93330001831","Extended template","0","0.3201998770236969","18","yes","1024"
"0","0","0.017663157594047095","0.017663157594047095","white","yes","psycho","psycho","psycho","0","uniform","0","undefined","0","n","1","0","21","1","1","0","0","0","0","NA","21","0","21","21","0","21","1","21","21","Mon Dec  4 16:55:05 2023","A template containing a practice and an experimental phase","yes","언어학과심리실험_B조_기말과제용심리실험.osexp","E:\2023년도 1학기\언어학과심리실험","no","mono","no","18","no","black","no","no","768","psycho","18","18","0","E:\2023년도 1학기\언어학과심리실험\quickrun.csv","psycho","Lentiform Loewenfeld","3.3.14","no","과일","natural","inclusive","0","None","NA","return","NA","return","None","n","0.015400117263197899","NA","7246.408700011671","NA","32002.382799983025","0.015400117263197899","967.2161000780761","2","psycho","1024","2","48000","-16","experiment","999","odd","사과","natural","NA","109344.42739980295","57314.34569996782","57314.29719994776","NA","50066.05329993181","2685.609399806708","57313.852299936116","NA","108621.71949981712","2762.089799856767","110421.54839984141","110421.722299885","34766.17620000616","108837.69740001298","NA","109453.17689981312","108610.63399980776","Extended template","0","0.3355999942868948","19","yes","1024"
"0","0","0.017579994164407253","0.017579994164407253","white","yes","psycho","psycho","psycho","0","uniform","0","undefined","0","n","1","0","22","1","1","0","0","0","0","NA","22","0","22","22","0","22","1","22","22","Mon Dec  4 16:55:05 2023","A template containing a practice and an experimental phase","yes","언어학과심리실험_B조_기말과제용심리실험.osexp","E:\2023년도 1학기\언어학과심리실험","no","mono","no","18","no","black","no","no","768","psycho","19","19","0","E:\2023년도 1학기\언어학과심리실험\quickrun.csv","psycho","Lentiform Loewenfeld","3.3.14","no","구두","artifactual","same phoneme","0","None","NA","return","NA","return","None","n","0.015999889001250267","NA","7246.408700011671","NA","32002.382799983025","0.015999889001250267","2748.4984998591244","2","psycho","1024","2","48000","-16","experiment","999","odd","구름","natural","NA","111257.90450000204","57314.34569996782","57314.29719994776","NA","50066.05329993181","2685.609399806708","57313.852299936116","NA","110535.64739995636","2762.089799856767","114113.65760001354","114113.83919999935","34766.17620000616","110751.42639991827","NA","111363.82979992777","110525.11109993793","Extended template","0","0.35159988328814507","20","yes","1024"
"0","0","0.017457142738359317","0.017457142738359317","white","yes","psycho","psycho","psycho","0","uniform","0","undefined","0","a","1","0","23","1","1","0","0","0","0","NA","23","0","23","23","0","23","1","23","23","Mon Dec  4 16:55:05 2023","A template containing a practice and an experimental phase","yes","언어학과심리실험_B조_기말과제용심리실험.osexp","E:\2023년도 1학기\언어학과심리실험","no","mono","no","18","no","black","no","no","768","psycho","20","20","0","E:\2023년도 1학기\언어학과심리실험\quickrun.csv","psycho","Lentiform Loewenfeld","3.3.14","no","구름","natural","same phoneme","0","None","NA","return","NA","return","None","a","0.01500011421740055","NA","7246.408700011671","NA","32002.382799983025","0.01500011421740055","2305.4015000816435","2","psycho","1024","2","48000","-16","experiment","999","odd","구슬","artifactual","NA","114936.03679980151","57314.34569996782","57314.29719994776","NA","50066.05329993181","2685.609399806708","57313.852299936116","NA","114212.64709997922","2762.089799856767","117349.37089984305","117349.55439995974","34766.17620000616","114427.6525999885","NA","115042.99619980156","114197.51339987852","Extended template","0","0.3665999975055456","21","yes","1024"
"0","0","0.017431818626143715","0.017431818626143715","white","yes","psycho","psycho","psycho","0","uniform","0","undefined","0","a","1","0","24","1","1","0","0","0","0","NA","24","0","24","24","0","24","1","24","24","Mon Dec  4 16:55:05 2023","A template containing a practice and an experimental phase","yes","언어학과심리실험_B조_기말과제용심리실험.osexp","E:\2023년도 1학기\언어학과심리실험","no","mono","no","18","no","black","no","no","768","psycho","21","21","0","E:\2023년도 1학기\언어학과심리실험\quickrun.csv","psycho","Lentiform Loewenfeld","3.3.14","no","키보드","artifactual","similar-environmental","0","None","NA","return","NA","return","None","a","0.016900012269616127","NA","7246.408700011671","NA","32002.382799983025","0.016900012269616127","849.845000077039","2","psycho","1024","2","48000","-16","experiment","999","odd","컴퓨터","artifactual","NA","118170.85679993033","57314.34569996782","57314.29719994776","NA","50066.05329993181","2685.609399806708","57313.852299936116","NA","117448.82659986615","2762.089799856767","119129.06519998796","119129.27569984458","34766.17620000616","117664.0347999055","NA","118278.49029982463","117438.0194998812","Extended template","0","0.38350000977516174","22","yes","1024"
"0","0","0.017352179502663406","0.017352179502663406","white","yes","psycho","psycho","psycho","0","uniform","0","undefined","0","a","1","0","25","1","1","0","0","0","0","NA","25","0","25","25","0","25","1","25","25","Mon Dec  4 16:55:05 2023","A template containing a practice and an experimental phase","yes","언어학과심리실험_B조_기말과제용심리실험.osexp","E:\2023년도 1학기\언어학과심리실험","no","mono","no","18","no","black","no","no","768","psycho","22","22","0","E:\2023년도 1학기\언어학과심리실험\quickrun.csv","psycho","Lentiform Loewenfeld","3.3.14","no","로켓","artifactual","same phoneme","0","None","NA","return","NA","return","None","a","0.015600118786096573","NA","7246.408700011671","NA","32002.382799983025","0.015600118786096573","710.6172998901457","2","psycho","1024","2","48000","-16","experiment","999","odd","로봇","artifactual","NA","119943.85639997199","57314.34569996782","57314.29719994776","NA","50066.05329993181","2685.609399806708","57313.852299936116","NA","119226.70989995822","2762.089799856767","120761.74579979852","120761.9396999944","34766.17620000616","119435.21389993839","NA","120049.67579990625","119218.86219992302","Extended template","0","0.3991001285612583","23","yes","1024"
"0","0","0.01780000942138334","0.01780000942138334","white","yes","psycho","psycho","psycho","0","uniform","0","undefined","0","n","1","0","26","1","1","0","0","0","0","NA","26","0","26","26","0","26","1","26","26","Mon Dec  4 16:55:05 2023","A template containing a practice and an experimental phase","yes","언어학과심리실험_B조_기말과제용심리실험.osexp","E:\2023년도 1학기\언어학과심리실험","no","mono","no","18","no","black","no","no","768","psycho","23","23","0","E:\2023년도 1학기\언어학과심리실험\quickrun.csv","psycho","Lentiform Loewenfeld","3.3.14","no","수영","artifactual","similar-environmental","0","None","NA","return","NA","return","None","n","0.02810009755194187","NA","7246.408700011671","NA","32002.382799983025","0.02810009755194187","902.7953001204878","2","psycho","1024","2","48000","-16","experiment","999","odd","바다","natural","NA","121581.58109989017","57314.34569996782","57314.29719994776","NA","50066.05329993181","2685.609399806708","57313.852299936116","NA","120858.02299994975","2762.089799856767","122594.19629978947","122594.60159996524","34766.17620000616","121073.43339989893","NA","121689.59929980338","120848.40309992433","Extended template","0","0.4272002261132002","24","yes","1024"
"0","0","0.01771600916981697","0.01771600916981697","white","yes","psycho","psycho","psycho","0","uniform","0","undefined","0","n","1","0","27","1","1","0","0","0","0","NA","27","0","27","27","0","27","1","27","27","Mon Dec  4 16:55:05 2023","A template containing a practice and an experimental phase","yes","언어학과심리실험_B조_기말과제용심리실험.osexp","E:\2023년도 1학기\언어학과심리실험","no","mono","no","18","no","black","no","no","768","psycho","24","24","0","E:\2023년도 1학기\언어학과심리실험\quickrun.csv","psycho","Lentiform Loewenfeld","3.3.14","no","얼음","natural","no-correlation","0","None","NA","return","NA","return","None","n","0.015700003132224083","NA","7246.408700011671","NA","32002.382799983025","0.015700003132224083","1624.4659000076354","2","psycho","1024","2","48000","-16","experiment","999","odd","돌","natural","NA","123420.32559984364","57314.34569996782","57314.29719994776","NA","50066.05329993181","2685.609399806708","57313.852299936116","NA","122697.00379995629","2762.089799856767","125154.00149999186","125154.20280001126","34766.17620000616","122912.69189980812","NA","123527.9384998139","122688.14300000668","Extended template","0","0.44290022924542427","25","yes","1024"
"0","0","0.017619244037912443","0.017619244037912443","white","yes","psycho","psycho","psycho","0","uniform","0","undefined","0","x","1","0","28","1","1","0","0","0","0","NA","28","0","28","28","0","28","1","28","28","Mon Dec  4 16:55:05 2023","A template containing a practice and an experimental phase","yes","언어학과심리실험_B조_기말과제용심리실험.osexp","E:\2023년도 1학기\언어학과심리실험","no","mono","no","18","no","black","no","no","768","psycho","25","25","0","E:\2023년도 1학기\언어학과심리실험\quickrun.csv","psycho","Lentiform Loewenfeld","3.3.14","no","절벽","natural","non-word","0","None","NA","return","NA","return","None","x","0.015200115740299225","NA","7246.408700011671","NA","32002.382799983025","0.015200115740299225","2335.8978000469506","2","psycho","1024","2","48000","-16","experiment","999","odd","물로프","non-word","NA","125957.46299996972","57314.34569996782","57314.29719994776","NA","50066.05329993181","2685.609399806708","57313.852299936116","NA","125241.29159981385","2762.089799856767","128402.03619981185","128402.2422998678","34766.17620000616","125449.70449991524","NA","126064.43309993483","125234.97849982232","Extended template","0","0.4581003449857235","26","yes","1024"
"0","0","0.017985201406258124","0.017985201406258124","white","yes","psycho","psycho","psycho","0","uniform","0","undefined","0","a","1","0","29","1","1","0","0","0","0","NA","29","0","29","29","0","29","1","29","29","Mon Dec  4 16:55:05 2023","A template containing a practice and an experimental phase","yes","언어학과심리실험_B조_기말과제용심리실험.osexp","E:\2023년도 1학기\언어학과심리실험","no","mono","no","18","no","black","no","no","768","psycho","26","26","0","E:\2023년도 1학기\언어학과심리실험\quickrun.csv","psycho","Lentiform Loewenfeld","3.3.14","no","안음풍","non-word","non-word","0","None","NA","return","NA","return","None","a","0.02750009298324585","NA","7246.408700011671","NA","32002.382799983025","0.02750009298324585","1203.0011999886483","2","psycho","1024","2","48000","-16","experiment","999","odd","의자","artifactual","NA","129226.04009998031","57314.34569996782","57314.29719994776","NA","50066.05329993181","2685.609399806708","57313.852299936116","NA","128503.09049990028","2762.089799856767","130538.22409990244","130538.49419998005","34766.17620000616","128719.03789998032","NA","129333.38159997948","128490.96539989114","Extended template","0","0.48560043796896935","27","yes","1024"
"0","0","0.01847502010475312","0.01847502010475312","white","yes","psycho","psycho","psycho","0","uniform","0","undefined","0","n","1","0","30","1","1","0","0","0","0","NA","30","0","30","30","0","30","1","30","30","Mon Dec  4 16:55:05 2023","A template containing a practice and an experimental phase","yes","언어학과심리실험_B조_기말과제용심리실험.osexp","E:\2023년도 1학기\언어학과심리실험","no","mono","no","18","no","black","no","no","768","psycho","27","27","0","E:\2023년도 1학기\언어학과심리실험\quickrun.csv","psycho","Lentiform Loewenfeld","3.3.14","no","언덕","natural","no-correlation","0","None","NA","return","NA","return","None","n","0.031700124964118004","NA","7246.408700011671","NA","32002.382799983025","0.031700124964118004","1011.6353000048548","2","psycho","1024","2","48000","-16","experiment","999","odd","고양이","natural","NA","131364.58139983006","57314.34569996782","57314.29719994776","NA","50066.05329993181","2685.609399806708","57313.852299936116","NA","130640.84339980036","2762.089799856767","132493.41159989126","132493.71039983816","34766.17620000616","130857.6349997893","NA","131480.7858997956","130632.52309989184","Extended template","0","0.5173005629330873","28","yes","1024"
"0","0","0.018786229514356316","0.018786229514356316","white","yes","psycho","psycho","psycho","0","uniform","0","undefined","0","a","1","0","31","1","1","0","0","0","0","NA","31","0","31","31","0","31","1","31","31","Mon Dec  4 16:55:05 2023","A template containing a practice and an experimental phase","yes","언어학과심리실험_B조_기말과제용심리실험.osexp","E:\2023년도 1학기\언어학과심리실험","no","mono","no","18","no","black","no","no","768","psycho","28","28","0","E:\2023년도 1학기\언어학과심리실험\quickrun.csv","psycho","Lentiform Loewenfeld","3.3.14","no","기계","artifactual","inclusive","0","None","NA","return","NA","return","None","a","0.02750009298324585","NA","7246.408700011671","NA","32002.382799983025","0.02750009298324585","760.1565001532435","2","psycho","1024","2","48000","-16","experiment","999","odd","컴퓨터","artifactual","NA","133310.36479980685","57314.34569996782","57314.29719994776","NA","50066.05329993181","2685.609399806708","57313.852299936116","NA","132587.39369991235","2762.089799856767","134189.98079979792","134190.32979989424","34766.17620000616","132803.37069998495","NA","133428.21379983798","132579.33939993382","Extended template","0","0.5448006559163332","29","yes","1024"
"0","0","0.018703355453908443","0.018703355453908443","white","yes","psycho","psycho","psycho","0","uniform","0","undefined","0","a","0","0","32","1","1","0","0","0","0","NA","32","0","32","32","0","32","1","32","32","Mon Dec  4 16:55:05 2023","A template containing a practice and an experimental phase","yes","언어학과심리실험_B조_기말과제용심리실험.osexp","E:\2023년도 1학기\언어학과심리실험","no","mono","no","18","no","black","no","no","768","psycho","29","29","0","E:\2023년도 1학기\언어학과심리실험\quickrun.csv","psycho","Lentiform Loewenfeld","3.3.14","no","꽃","natural","no-correlation","0","None","NA","return","NA","return","None","x","0.016300007700920105","NA","7246.408700011671","NA","32002.382799983025","0.016300007700920105","1515.7726998440921","2","psycho","1024","2","48000","-16","experiment","999","odd","경주","artifactual","NA","135007.4225999415","57314.34569996782","57314.29719994776","NA","50066.05329993181","2685.609399806708","57313.852299936116","NA","134283.86630001478","2762.089799856767","136629.21109981835","136629.43629990332","34766.17620000616","134500.5153999664","NA","135112.55700001493","134269.2877999507","Extended template","0","0.5611006636172533","30","yes","1024"
"0","0","0.018600021458921895","0.018600021458921895","white","yes","psycho","psycho","psycho","0","uniform","0","undefined","0","a","1","0","33","1","1","0","0","0","0","NA","33","0","33","33","0","33","1","33","33","Mon Dec  4 16:55:05 2023","A template containing a practice and an experimental phase","yes","언어학과심리실험_B조_기말과제용심리실험.osexp","E:\2023년도 1학기\언어학과심리실험","no","mono","no","18","no","black","no","no","768","psycho","30","30","0","E:\2023년도 1학기\언어학과심리실험\quickrun.csv","psycho","Lentiform Loewenfeld","3.3.14","no","바다","natural","same phoneme","0","None","NA","return","NA","return","None","a","0.015500001609325409","NA","7246.408700011671","NA","32002.382799983025","0.015500001609325409","1330.2386000286788","2","psycho","1024","2","48000","-16","experiment","999","odd","바구니","artifactual","NA","137462.22639991902","57314.34569996782","57314.29719994776","NA","50066.05329993181","2685.609399806708","57313.852299936116","NA","136730.15919979662","2762.089799856767","138902.08079991862","138902.31299982406","34766.17620000616","136945.98039984703","NA","137570.19569980912","136715.2034000028","Extended template","0","0.5766006652265787","31","yes","1024"
"0","0","0.018596889276523143","0.018596889276523143","white","yes","psycho","psycho","psycho","0","uniform","0","undefined","0","a","1","0","34","1","1","0","0","0","0","NA","34","0","34","34","0","34","1","34","34","Mon Dec  4 16:55:05 2023","A template containing a practice and an experimental phase","yes","언어학과심리실험_B조_기말과제용심리실험.osexp","E:\2023년도 1학기\언어학과심리실험","no","mono","no","18","no","black","no","no","768","psycho","31","31","0","E:\2023년도 1학기\언어학과심리실험\quickrun.csv","psycho","Lentiform Loewenfeld","3.3.14","no","소나무","natural","same phoneme","0","None","NA","return","NA","return","None","a","0.018499791622161865","NA","7246.408700011671","NA","32002.382799983025","0.018499791622161865","2619.9481000658125","2","psycho","1024","2","48000","-16","experiment","999","odd","소방서","artifactual","NA","139724.9547999818","57314.34569996782","57314.29719994776","NA","50066.05329993181","2685.609399806708","57313.852299936116","NA","139000.74990000576","2762.089799856767","142453.4932000097","142453.73249985278","34766.17620000616","139211.42199984752","NA","139832.36439991742","138991.28649989143","Extended template","0","0.5951004568487406","32","yes","1024"
"0","0","0.01851516550011707","0.01851516550011707","white","yes","psycho","psycho","psycho","0","uniform","0","undefined","0","a","1","0","35","1","1","0","0","0","0","NA","35","0","35","35","0","35","1","35","35","Mon Dec  4 16:55:05 2023","A template containing a practice and an experimental phase","yes","언어학과심리실험_B조_기말과제용심리실험.osexp","E:\2023년도 1학기\언어학과심리실험","no","mono","no","18","no","black","no","no","768","psycho","32","32","0","E:\2023년도 1학기\언어학과심리실험\quickrun.csv","psycho","Lentiform Loewenfeld","3.3.14","no","화분","artifactual","no-correlation","0","None","NA","return","NA","return","None","a","0.015900004655122757","NA","7246.408700011671","NA","32002.382799983025","0.015900004655122757","2035.2480998262763","2","psycho","1024","2","48000","-16","experiment","999","odd","신발","artifactual","NA","143284.3310998287","57314.34569996782","57314.29719994776","NA","50066.05329993181","2685.609399806708","57313.852299936116","NA","142569.29239979945","2762.089799856767","145425.7842998486","145426.02279991843","34766.17620000616","142778.0132999178","NA","143389.07869998366","142558.74459980987","Extended template","0","0.6110004615038633","33","yes","1024"
"0","0","0.018423539586365223","0.018423539586365223","white","yes","psycho","psycho","psycho","0","uniform","0","undefined","0","x","1","0","36","1","1","0","0","0","0","NA","36","0","36","36","0","36","1","36","36","Mon Dec  4 16:55:05 2023","A template containing a practice and an experimental phase","yes","언어학과심리실험_B조_기말과제용심리실험.osexp","E:\2023년도 1학기\언어학과심리실험","no","mono","no","18","no","black","no","no","768","psycho","33","33","0","E:\2023년도 1학기\언어학과심리실험\quickrun.csv","psycho","Lentiform Loewenfeld","3.3.14","no","폭풍","natural","non-word","0","None","NA","return","NA","return","None","x","0.015399884432554245","NA","7246.408700011671","NA","32002.382799983025","0.015399884432554245","1864.2128000501543","2","psycho","1024","2","48000","-16","experiment","999","odd","섬강","non-word","NA","146246.02479999885","57314.34569996782","57314.29719994776","NA","50066.05329993181","2685.609399806708","57313.852299936116","NA","145523.62110000104","2762.089799856767","148218.0741999764","148218.3134998195","34766.17620000616","145738.6987998616","NA","146352.18749986961","145514.4865999464","Extended template","0","0.6264003459364176","34","yes","1024"
"0","0","0.018371442066771642","0.018371442066771642","white","yes","psycho","psycho","psycho","0","uniform","0","undefined","0","n","1","0","37","1","1","0","0","0","0","NA","37","0","37","37","0","37","1","37","37","Mon Dec  4 16:55:05 2023","A template containing a practice and an experimental phase","yes","언어학과심리실험_B조_기말과제용심리실험.osexp","E:\2023년도 1학기\언어학과심리실험","no","mono","no","18","no","black","no","no","768","psycho","34","34","0","E:\2023년도 1학기\언어학과심리실험\quickrun.csv","psycho","Lentiform Loewenfeld","3.3.14","no","바닥","artifactual","same phoneme","0","None","NA","return","NA","return","None","n","0.016600126400589943","NA","7246.408700011671","NA","32002.382799983025","0.016600126400589943","1218.947899993509","2","psycho","1024","2","48000","-16","experiment","999","odd","바다","natural","NA","149032.25839999504","57314.34569996782","57314.29719994776","NA","50066.05329993181","2685.609399806708","57313.852299936116","NA","148317.1924999915","2762.089799856767","150357.86259989254","150358.1107999198","34766.17620000616","148525.03389981575","NA","149137.4053999316","148304.02599996887","Extended template","0","0.6430004723370075","35","yes","1024"
"0","0","0.018291679831842583","0.018291679831842583","white","yes","psycho","psycho","psycho","0","uniform","0","undefined","0","n","1","0","38","1","1","0","0","0","0","NA","38","0","38","38","0","38","1","38","38","Mon Dec  4 16:55:05 2023","A template containing a practice and an experimental phase","yes","언어학과심리실험_B조_기말과제용심리실험.osexp","E:\2023년도 1학기\언어학과심리실험","no","mono","no","18","no","black","no","no","768","psycho","35","35","0","E:\2023년도 1학기\언어학과심리실험\quickrun.csv","psycho","Lentiform Loewenfeld","3.3.14","no","전구","artifactual","similar-environmental","0","None","NA","return","NA","return","None","n","0.015500001609325409","NA","7246.408700011671","NA","32002.382799983025","0.015500001609325409","2052.432500058785","2","psycho","1024","2","48000","-16","experiment","999","odd","빛","natural","NA","151178.62639995292","57314.34569996782","57314.29719994776","NA","50066.05329993181","2685.609399806708","57313.852299936116","NA","150456.2034998089","2762.089799856767","153337.78279996477","153338.03119999357","34766.17620000616","150672.0311997924","NA","151283.94609992392","150448.08009988628","Extended template","0","0.6585004739463329","36","yes","1024"
"0","0","0.018202712306299725","0.018202712306299725","white","yes","psycho","psycho","psycho","0","uniform","0","undefined","0","a","0","0","39","1","1","0","0","0","0","NA","39","0","39","39","0","39","1","39","39","Mon Dec  4 16:55:05 2023","A template containing a practice and an experimental phase","yes","언어학과심리실험_B조_기말과제용심리실험.osexp","E:\2023년도 1학기\언어학과심리실험","no","mono","no","18","no","black","no","no","768","psycho","36","36","0","E:\2023년도 1학기\언어학과심리실험\quickrun.csv","psycho","Lentiform Loewenfeld","3.3.14","no","성냥","artifactual","same phoneme","0","None","NA","return","NA","return","None","x","0.014999881386756897","NA","7246.408700011671","NA","32002.382799983025","0.014999881386756897","127.90629989467561","2","psycho","1024","2","48000","-16","experiment","999","odd","성적표","artifactual","NA","154148.1825998053","57314.34569996782","57314.29719994776","NA","50066.05329993181","2685.609399806708","57313.852299936116","NA","153433.46989993006","2762.089799856767","154385.80889999866","154386.0622998327","34766.17620000616","153640.9392999485","NA","154256.46930001676","153426.51969986036","Extended template","0","0.6735003553330898","37","yes","1024"
"0","0","0.01816053899299157","0.01816053899299157","white","yes","psycho","psycho","psycho","0","uniform","0","undefined","0","a","1","0","40","1","1","0","0","0","0","NA","40","0","40","40","0","40","1","40","40","Mon Dec  4 16:55:05 2023","A template containing a practice and an experimental phase","yes","언어학과심리실험_B조_기말과제용심리실험.osexp","E:\2023년도 1학기\언어학과심리실험","no","mono","no","18","no","black","no","no","768","psycho","37","37","0","E:\2023년도 1학기\언어학과심리실험\quickrun.csv","psycho","Lentiform Loewenfeld","3.3.14","no","바람","natural","no-correlation","0","None","NA","return","NA","return","None","a","0.016600126400589943","NA","7246.408700011671","NA","32002.382799983025","0.016600126400589943","2273.7106001004577","2","psycho","1024","2","48000","-16","experiment","999","odd","버스","artifactual","NA","155213.29410001636","57314.34569996782","57314.29719994776","NA","50066.05329993181","2685.609399806708","57313.852299936116","NA","154490.05719996057","2762.089799856767","157593.8513998408","157594.10899993964","34766.17620000616","154706.21289988048","NA","155318.62539984286","154473.44339988194","Extended template","0","0.6901004817336798","38","yes","1024"
"0","0","0.018087191841541193","0.018087191841541193","white","yes","psycho","psycho","psycho","0","uniform","0","undefined","0","x","1","0","41","1","1","0","0","0","0","NA","41","0","41","41","0","41","1","41","41","Mon Dec  4 16:55:05 2023","A template containing a practice and an experimental phase","yes","언어학과심리실험_B조_기말과제용심리실험.osexp","E:\2023년도 1학기\언어학과심리실험","no","mono","no","18","no","black","no","no","768","psycho","38","38","0","E:\2023년도 1학기\언어학과심리실험\quickrun.csv","psycho","Lentiform Loewenfeld","3.3.14","no","사자","natural","non-word","0","None","NA","return","NA","return","None","x","0.015300000086426735","NA","7246.408700011671","NA","32002.382799983025","0.015300000086426735","1079.486500006169","2","psycho","1024","2","48000","-16","experiment","999","odd","러스바이","non-word","NA","158432.95839987695","57314.34569996782","57314.29719994776","NA","50066.05329993181","2685.609399806708","57313.852299936116","NA","157710.098200012","2762.089799856767","159621.71829980798","159621.9878999982","34766.17620000616","157925.3250998445","NA","158540.90439993888","157700.62059978954","Extended template","0","0.7054004818201065","39","yes","1024"
"0","0","0.018167513189837337","0.018167513189837337","white","yes","psycho","psycho","psycho","0","uniform","0","undefined","0","n","1","0","42","1","1","0","0","0","0","NA","42","0","42","42","0","42","1","42","42","Mon Dec  4 16:55:05 2023","A template containing a practice and an experimental phase","yes","언어학과심리실험_B조_기말과제용심리실험.osexp","E:\2023년도 1학기\언어학과심리실험","no","mono","no","18","no","black","no","no","768","psycho","39","39","0","E:\2023년도 1학기\언어학과심리실험\quickrun.csv","psycho","Lentiform Loewenfeld","3.3.14","no","상새고","non-word","non-word","0","None","NA","return","NA","return","None","n","0.021300045773386955","NA","7246.408700011671","NA","32002.382799983025","0.021300045773386955","1152.4831999558955","2","psycho","1024","2","48000","-16","experiment","999","odd","나뭇잎","natural","NA","160462.5645999331","57314.34569996782","57314.29719994776","NA","50066.05329993181","2685.609399806708","57313.852299936116","NA","159740.22099981084","2762.089799856767","161725.41209985502","161725.73369997554","34766.17620000616","159955.2886998281","NA","160571.82269985788","159729.87659997307","Extended template","0","0.7267005275934935","40","yes","1024"
"0","0","0.018141476619170933","0.018141476619170933","white","yes","psycho","psycho","psycho","0","uniform","0","undefined","0","n","1","0","43","1","1","0","0","0","0","NA","43","0","43","43","0","43","1","43","43","Mon Dec  4 16:55:05 2023","A template containing a practice and an experimental phase","yes","언어학과심리실험_B조_기말과제용심리실험.osexp","E:\2023년도 1학기\언어학과심리실험","no","mono","no","18","no","black","no","no","768","psycho","40","40","0","E:\2023년도 1학기\언어학과심리실험\quickrun.csv","psycho","Lentiform Loewenfeld","3.3.14","no","태양","natural","same phoneme","0","None","NA","return","NA","return","None","n","0.0171000137925148","NA","7246.408700011671","NA","32002.382799983025","0.0171000137925148","1137.650900054723","2","psycho","1024","2","48000","-16","experiment","999","odd","태풍","natural","NA","162550.45149987563","57314.34569996782","57314.29719994776","NA","50066.05329993181","2685.609399806708","57313.852299936116","NA","161827.6984000113","2762.089799856767","163797.67009988427","163797.9474000167","34766.17620000616","162042.53939981572","NA","162658.6853999179","161813.6967997998","Extended template","0","0.7438005413860083","41","yes","1024"
"0","0","0.018395250663161278","0.018395250663161278","white","yes","psycho","psycho","psycho","0","uniform","0","undefined","0","a","1","0","44","1","1","0","0","0","0","NA","44","0","44","44","0","44","1","44","44","Mon Dec  4 16:55:05 2023","A template containing a practice and an experimental phase","yes","언어학과심리실험_B조_기말과제용심리실험.osexp","E:\2023년도 1학기\언어학과심리실험","no","mono","no","18","no","black","no","no","768","psycho","41","41","0","E:\2023년도 1학기\언어학과심리실험\quickrun.csv","psycho","Lentiform Loewenfeld","3.3.14","no","모자","artifactual","no-correlation","0","None","NA","return","NA","return","None","a","0.028799986466765404","NA","7246.408700011671","NA","32002.382799983025","0.028799986466765404","990.3386000078171","2","psycho","1024","2","48000","-16","experiment","999","odd","마우스","artifactual","NA","164624.27039979957","57314.34569996782","57314.29719994776","NA","50066.05329993181","2685.609399806708","57313.852299936116","NA","163899.28449993022","2762.089799856767","165734.1024999041","165734.690599842","34766.17620000616","164114.53569983132","NA","164742.03109997325","163888.9118998777","Extended template","0","0.7726005278527737","42","yes","1024"
"0","0","0.01834652408264404","0.01834652408264404","white","yes","psycho","psycho","psycho","0","uniform","0","undefined","0","a","0","0","45","1","1","0","0","0","0","NA","45","0","45","45","0","45","1","45","45","Mon Dec  4 16:55:05 2023","A template containing a practice and an experimental phase","yes","언어학과심리실험_B조_기말과제용심리실험.osexp","E:\2023년도 1학기\언어학과심리실험","no","mono","no","18","no","black","no","no","768","psycho","42","42","0","E:\2023년도 1학기\언어학과심리실험\quickrun.csv","psycho","Lentiform Loewenfeld","3.3.14","no","시","artifactual","similar-environmental","0","None","NA","return","NA","return","None","x","0.016300007700920105","NA","7246.408700011671","NA","32002.382799983025","0.016300007700920105","2658.8049000129104","2","psycho","1024","2","48000","-16","experiment","999","odd","소설","artifactual","NA","166563.84809990413","57314.34569996782","57314.29719994776","NA","50066.05329993181","2685.609399806708","57313.852299936116","NA","165844.78479996324","2762.089799856767","169337.85939984955","169338.1391998846","34766.17620000616","166051.58829991706","NA","166677.5700999424","165832.63599989004","Extended template","0","0.7889005355536938","43","yes","1024"
"0","0","0.018290921368382194","0.018290921368382194","white","yes","psycho","psycho","psycho","0","uniform","0","undefined","0","a","1","0","46","1","1","0","0","0","0","NA","46","0","46","46","0","46","1","46","46","Mon Dec  4 16:55:05 2023","A template containing a practice and an experimental phase","yes","언어학과심리실험_B조_기말과제용심리실험.osexp","E:\2023년도 1학기\언어학과심리실험","no","mono","no","18","no","black","no","no","768","psycho","43","43","0","E:\2023년도 1학기\언어학과심리실험\quickrun.csv","psycho","Lentiform Loewenfeld","3.3.14","no","호수","natural","no-correlation","0","None","NA","return","NA","return","None","a","0.015900004655122757","NA","7246.408700011671","NA","32002.382799983025","0.015900004655122757","4481.183799915016","2","psycho","1024","2","48000","-16","experiment","999","odd","화장실","artifactual","NA","170161.8945999071","57314.34569996782","57314.29719994776","NA","50066.05329993181","2685.609399806708","57313.852299936116","NA","169438.92909982242","2762.089799856767","174749.93539997377","174750.2179997973","34766.17620000616","169654.920599889","NA","170267.18449988402","169423.0078998953","Extended template","0","0.8048005402088165","44","yes","1024"
"0","0","0.018268901233871777","0.018268901233871777","white","yes","psycho","psycho","psycho","0","uniform","0","undefined","0","a","1","0","47","1","1","0","0","0","0","NA","47","0","47","47","0","47","1","47","47","Mon Dec  4 16:55:05 2023","A template containing a practice and an experimental phase","yes","언어학과심리실험_B조_기말과제용심리실험.osexp","E:\2023년도 1학기\언어학과심리실험","no","mono","no","18","no","black","no","no","768","psycho","44","44","0","E:\2023년도 1학기\언어학과심리실험\quickrun.csv","psycho","Lentiform Loewenfeld","3.3.14","no","악어","natural","same phoneme","0","None","NA","return","NA","return","None","a","0.017300015315413475","NA","7246.408700011671","NA","32002.382799983025","0.017300015315413475","1054.6319999266416","2","psycho","1024","2","48000","-16","experiment","999","odd","악기","artifactual","NA","175586.19679999538","57314.34569996782","57314.29719994776","NA","50066.05329993181","2685.609399806708","57313.852299936116","NA","174862.4483998865","2762.089799856767","176749.72069985233","176750.00889995135","34766.17620000616","175077.54099997692","NA","175693.66639992222","174849.53229990788","Extended template","0","0.82210055552423","45","yes","1024"
"0","0","0.018243490637320538","0.018243490637320538","white","yes","psycho","psycho","psycho","0","uniform","0","undefined","0","n","1","0","48","1","1","0","0","0","0","NA","48","0","48","48","0","48","1","48","48","Mon Dec  4 16:55:05 2023","A template containing a practice and an experimental phase","yes","언어학과심리실험_B조_기말과제용심리실험.osexp","E:\2023년도 1학기\언어학과심리실험","no","mono","no","18","no","black","no","no","768","psycho","45","45","0","E:\2023년도 1학기\언어학과심리실험\quickrun.csv","psycho","Lentiform Loewenfeld","3.3.14","no","스노우보드","artifactual","no-correlation","0","None","NA","return","NA","return","None","n","0.0171000137925148","NA","7246.408700011671","NA","32002.382799983025","0.0171000137925148","1662.36130008474","2","psycho","1024","2","48000","-16","experiment","999","odd","소나무","natural","NA","177573.9863999188","57314.34569996782","57314.29719994776","NA","50066.05329993181","2685.609399806708","57313.852299936116","NA","176851.17609985173","2762.089799856767","179345.7247999031","179346.01979982108","34766.17620000616","177066.0139999818","NA","177681.998899905","176840.3723000083","Extended template","0","0.8392005693167448","46","yes","1024"
"0","0","0.01829363247181507","0.01829363247181507","white","yes","psycho","psycho","psycho","0","uniform","0","undefined","0","a","0","0","49","1","1","0","0","0","0","NA","49","0","49","49","0","49","1","49","49","Mon Dec  4 16:55:05 2023","A template containing a practice and an experimental phase","yes","언어학과심리실험_B조_기말과제용심리실험.osexp","E:\2023년도 1학기\언어학과심리실험","no","mono","no","18","no","black","no","no","768","psycho","46","46","0","E:\2023년도 1학기\언어학과심리실험\quickrun.csv","psycho","Lentiform Loewenfeld","3.3.14","no","영화","artifactual","similar-environmental","0","None","NA","return","NA","return","None","x","0.020600156858563423","NA","7246.408700011671","NA","32002.382799983025","0.020600156858563423","2557.8707000240684","2","psycho","1024","2","48000","-16","experiment","999","odd","드라마","artifactual","NA","180161.04689985514","57314.34569996782","57314.29719994776","NA","50066.05329993181","2685.609399806708","57313.852299936116","NA","179445.6487998832","2762.089799856767","182829.58969986066","182829.9667998217","34766.17620000616","179653.55399996042","NA","180270.4553999938","179431.16859998554","Extended template","0","0.8598007261753082","47","yes","1024"
"0","0","0.018235431828846533","0.018235431828846533","white","yes","psycho","psycho","psycho","0","uniform","0","undefined","0","n","1","0","50","1","1","0","0","0","0","NA","50","0","50","50","0","50","1","50","50","Mon Dec  4 16:55:05 2023","A template containing a practice and an experimental phase","yes","언어학과심리실험_B조_기말과제용심리실험.osexp","E:\2023년도 1학기\언어학과심리실험","no","mono","no","18","no","black","no","no","768","psycho","47","47","0","E:\2023년도 1학기\언어학과심리실험\quickrun.csv","psycho","Lentiform Loewenfeld","3.3.14","no","태양계","natural","inclusive","0","None","NA","return","NA","return","None","n","0.015500001609325409","NA","7246.408700011671","NA","32002.382799983025","0.015500001609325409","1499.3708000984043","2","psycho","1024","2","48000","-16","experiment","999","odd","목성","natural","NA","183672.61239979416","57314.34569996782","57314.29719994776","NA","50066.05329993181","2685.609399806708","57313.852299936116","NA","182939.58299979568","2762.089799856767","185289.772399934","185290.07219988853","34766.17620000616","183158.12349994667","NA","183788.96999987774","182925.9188999422","Extended template","0","0.8753007277846336","48","yes","1024"
"0","0","0.018287773187063178","0.018287773187063178","white","yes","psycho","psycho","psycho","0","uniform","0","undefined","0","a","1","0","51","1","1","0","0","0","0","NA","51","0","51","51","0","51","1","51","51","Mon Dec  4 16:55:05 2023","A template containing a practice and an experimental phase","yes","언어학과심리실험_B조_기말과제용심리실험.osexp","E:\2023년도 1학기\언어학과심리실험","no","mono","no","18","no","black","no","no","768","psycho","48","48","0","E:\2023년도 1학기\언어학과심리실험\quickrun.csv","psycho","Lentiform Loewenfeld","3.3.14","no","전기","natural","similar-environmental","0","None","NA","return","NA","return","None","a","0.020800158381462097","NA","7246.408700011671","NA","32002.382799983025","0.020800158381462097","1558.619000017643","2","psycho","1024","2","48000","-16","experiment","999","odd","전선","artifactual","NA","186099.73469981924","57314.34569996782","57314.29719994776","NA","50066.05329993181","2685.609399806708","57313.852299936116","NA","185384.65759996325","2762.089799856767","187770.006199833","187770.35259990953","34766.17620000616","185592.6006999798","NA","186209.70739983022","185372.15259997174","Extended template","0","0.8961008861660957","49","yes","1024"
"0","0","0.018250015564262867","0.018250015564262867","white","yes","psycho","psycho","psycho","0","uniform","0","undefined","0","n","1","0","52","1","1","0","0","0","0","NA","52","0","52","52","0","52","1","52","52","Mon Dec  4 16:55:05 2023","A template containing a practice and an experimental phase","yes","언어학과심리실험_B조_기말과제용심리실험.osexp","E:\2023년도 1학기\언어학과심리실험","no","mono","no","18","no","black","no","no","768","psycho","49","49","0","E:\2023년도 1학기\언어학과심리실험\quickrun.csv","psycho","Lentiform Loewenfeld","3.3.14","no","보트","artifactual","same phoneme","0","None","NA","return","NA","return","None","n","0.016399892047047615","NA","7246.408700011671","NA","32002.382799983025","0.016399892047047615","2651.702599832788","2","psycho","1024","2","48000","-16","experiment","999","odd","보름달","natural","NA","188596.1640998721","57314.34569996782","57314.29719994776","NA","50066.05329993181","2685.609399806708","57313.852299936116","NA","187873.3895998448","2762.089799856767","191357.7093000058","191358.03439980373","34766.17620000616","188088.4799999185","NA","188704.6048999764","187861.8035998661","Extended template","0","0.9125007782131433","50","yes","1024"
"0","0","0.018194130640111716","0.018194130640111716","white","yes","psycho","psycho","psycho","0","uniform","0","undefined","0","n","1","0","53","1","1","0","0","0","0","NA","53","0","53","53","0","53","1","53","53","Mon Dec  4 16:55:05 2023","A template containing a practice and an experimental phase","yes","언어학과심리실험_B조_기말과제용심리실험.osexp","E:\2023년도 1학기\언어학과심리실험","no","mono","no","18","no","black","no","no","768","psycho","50","50","0","E:\2023년도 1학기\언어학과심리실험\quickrun.csv","psycho","Lentiform Loewenfeld","3.3.14","no","스노우보드","artifactual","no-correlation","0","None","NA","return","NA","return","None","n","0.015399884432554245","NA","7246.408700011671","NA","32002.382799983025","0.015399884432554245","969.0626999363303","2","psycho","1024","2","48000","-16","experiment","999","odd","꽃","natural","NA","192181.0935998801","57314.34569996782","57314.29719994776","NA","50066.05329993181","2685.609399806708","57313.852299936116","NA","191457.97649980523","2762.089799856767","193261.65180001408","193261.97479991242","34766.17620000616","191673.80189988762","NA","192291.2798000034","191443.74499982223","Extended template","0","0.9279006626456976","51","yes","1024"
"0","0","0.01821923965158371","0.01821923965158371","white","yes","psycho","psycho","psycho","0","uniform","0","undefined","0","n","1","0","54","1","1","0","0","0","0","NA","54","0","54","54","0","54","1","54","54","Mon Dec  4 16:55:05 2023","A template containing a practice and an experimental phase","yes","언어학과심리실험_B조_기말과제용심리실험.osexp","E:\2023년도 1학기\언어학과심리실험","no","mono","no","18","no","black","no","no","768","psycho","51","51","0","E:\2023년도 1학기\언어학과심리실험\quickrun.csv","psycho","Lentiform Loewenfeld","3.3.14","no","우산","artifactual","similar-environmental","0","None","NA","return","NA","return","None","n","0.019499799236655235","NA","7246.408700011671","NA","32002.382799983025","0.019499799236655235","772.7514000143856","2","psycho","1024","2","48000","-16","experiment","999","odd","비","natural","NA","194077.36759982072","57314.34569996782","57314.29719994776","NA","50066.05329993181","2685.609399806708","57313.852299936116","NA","193354.76799984463","2762.089799856767","194957.43619999848","194957.8399998136","34766.17620000616","193570.8896999713","NA","194183.62649995834","193343.62980001606","Extended template","0","0.9474004618823528","52","yes","1024"
"0","0","0.018183027727986283","0.018183027727986283","white","yes","psycho","psycho","psycho","0","uniform","0","undefined","0","a","1","0","55","1","1","0","0","0","0","NA","55","0","55","55","0","55","1","55","55","Mon Dec  4 16:55:05 2023","A template containing a practice and an experimental phase","yes","언어학과심리실험_B조_기말과제용심리실험.osexp","E:\2023년도 1학기\언어학과심리실험","no","mono","no","18","no","black","no","no","768","psycho","52","52","0","E:\2023년도 1학기\언어학과심리실험\quickrun.csv","psycho","Lentiform Loewenfeld","3.3.14","no","향수","artifactual","no-correlation","0","None","NA","return","NA","return","None","a","0.016300007700920105","NA","7246.408700011671","NA","32002.382799983025","0.016300007700920105","805.0029000733048","2","psycho","1024","2","48000","-16","experiment","999","odd","선풍기","artifactual","NA","195775.89969988912","57314.34569996782","57314.29719994776","NA","50066.05329993181","2685.609399806708","57313.852299936116","NA","195059.0415999759","2762.089799856767","196689.52029990032","196689.84389980324","34766.17620000616","195265.36759990267","NA","195883.29129992053","195045.7582999952","Extended template","0","0.9637004695832729","53","yes","1024"
"0","0","0.018131488037330133","0.018131488037330133","white","yes","psycho","psycho","psycho","0","uniform","0","undefined","0","a","1","0","56","1","1","0","0","0","0","NA","56","0","56","56","0","56","1","56","56","Mon Dec  4 16:55:05 2023","A template containing a practice and an experimental phase","yes","언어학과심리실험_B조_기말과제용심리실험.osexp","E:\2023년도 1학기\언어학과심리실험","no","mono","no","18","no","black","no","no","768","psycho","53","53","0","E:\2023년도 1학기\언어학과심리실험\quickrun.csv","psycho","Lentiform Loewenfeld","3.3.14","no","눈","natural","similar-environmental","0","None","NA","return","NA","return","None","a","0.015399884432554245","NA","7246.408700011671","NA","32002.382799983025","0.015399884432554245","2230.812900001183","2","psycho","1024","2","48000","-16","experiment","999","odd","스키","artifactual","NA","197513.79949995317","57314.34569996782","57314.29719994776","NA","50066.05329993181","2685.609399806708","57313.852299936116","NA","196789.87320000306","2762.089799856767","199853.824299993","199854.1745999828","34766.17620000616","197005.50449988805","NA","197621.506099822","196778.96909997799","Extended template","0","0.9791003540158272","54","yes","1024"
"0","0","0.01810182478617538","0.01810182478617538","white","yes","psycho","psycho","psycho","0","uniform","0","undefined","0","n","1","0","57","1","1","0","0","0","0","NA","57","0","57","57","0","57","1","57","57","Mon Dec  4 16:55:05 2023","A template containing a practice and an experimental phase","yes","언어학과심리실험_B조_기말과제용심리실험.osexp","E:\2023년도 1학기\언어학과심리실험","no","mono","no","18","no","black","no","no","768","psycho","54","54","0","E:\2023년도 1학기\언어학과심리실험\quickrun.csv","psycho","Lentiform Loewenfeld","3.3.14","no","새","natural","inclusive","0","None","NA","return","NA","return","None","n","0.01650000922381878","NA","7246.408700011671","NA","32002.382799983025","0.01650000922381878","1493.5129000805318","2","psycho","1024","2","48000","-16","experiment","999","odd","까치","natural","NA","200683.98759979755","57314.34569996782","57314.29719994776","NA","50066.05329993181","2685.609399806708","57313.852299936116","NA","199952.19829981215","2762.089799856767","202285.5113998521","202285.86889989674","34766.17620000616","200169.32039987296","NA","200790.79739982262","199943.01429996267","Extended template","0","0.995600363239646","55","yes","1024"
"0","0","0.018107147687780007","0.018107147687780007","white","yes","psycho","psycho","psycho","0","uniform","0","undefined","0","n","1","0","58","1","1","0","0","0","0","NA","58","0","58","58","0","58","1","58","58","Mon Dec  4 16:55:05 2023","A template containing a practice and an experimental phase","yes","언어학과심리실험_B조_기말과제용심리실험.osexp","E:\2023년도 1학기\언어학과심리실험","no","mono","no","18","no","black","no","no","768","psycho","55","55","0","E:\2023년도 1학기\언어학과심리실험\quickrun.csv","psycho","Lentiform Loewenfeld","3.3.14","no","불","natural","no-correlation","0","None","NA","return","NA","return","None","n","0.018399907276034355","NA","7246.408700011671","NA","32002.382799983025","0.018399907276034355","910.6596999336034","2","psycho","1024","2","48000","-16","experiment","999","odd","물고기","natural","NA","203103.46519993618","57314.34569996782","57314.29719994776","NA","50066.05329993181","2685.609399806708","57313.852299936116","NA","202379.173199879","2762.089799856767","204129.73899999633","204130.09109999985","34766.17620000616","202588.3582998067","NA","203208.61329999752","202366.2482998334","Extended template","0","1.0140002705156803","56","yes","1024"
"0","0","0.018066673523239922","0.018066673523239922","white","yes","psycho","psycho","psycho","0","uniform","0","undefined","0","a","1","0","59","1","1","0","0","0","0","NA","59","0","59","59","0","59","1","59","59","Mon Dec  4 16:55:05 2023","A template containing a practice and an experimental phase","yes","언어학과심리실험_B조_기말과제용심리실험.osexp","E:\2023년도 1학기\언어학과심리실험","no","mono","no","18","no","black","no","no","768","psycho","56","56","0","E:\2023년도 1학기\언어학과심리실험\quickrun.csv","psycho","Lentiform Loewenfeld","3.3.14","no","구름","natural","same phoneme","0","None","NA","return","NA","return","None","a","0.015800120308995247","NA","7246.408700011671","NA","32002.382799983025","0.015800120308995247","1066.5693001355976","2","psycho","1024","2","48000","-16","experiment","999","odd","구두","artifactual","NA","204950.90209995396","57314.34569996782","57314.29719994776","NA","50066.05329993181","2685.609399806708","57313.852299936116","NA","204226.22469998896","2762.089799856767","206125.91309985146","206126.25329988077","34766.17620000616","204442.92739988305","NA","205057.76029988192","204214.63489998132","Extended template","0","1.0298003908246756","57","yes","1024"
"0","0","0.01807069678887211","0.01807069678887211","white","yes","psycho","psycho","psycho","0","uniform","0","undefined","0","a","1","0","60","1","1","0","0","0","0","NA","60","0","60","60","0","60","1","60","60","Mon Dec  4 16:55:05 2023","A template containing a practice and an experimental phase","yes","언어학과심리실험_B조_기말과제용심리실험.osexp","E:\2023년도 1학기\언어학과심리실험","no","mono","no","18","no","black","no","no","768","psycho","57","57","0","E:\2023년도 1학기\언어학과심리실험\quickrun.csv","psycho","Lentiform Loewenfeld","3.3.14","no","바람","natural","similar-environmental","0","None","NA","return","NA","return","None","a","0.018300022929906845","NA","7246.408700011671","NA","32002.382799983025","0.018300022929906845","3276.764800073579","2","psycho","1024","2","48000","-16","experiment","999","odd","창문","artifactual","NA","206963.71739986353","57314.34569996782","57314.29719994776","NA","50066.05329993181","2685.609399806708","57313.852299936116","NA","206239.75969990715","2762.089799856767","210349.8400999233","210350.19159992225","34766.17620000616","206456.1028999742","NA","207071.53659989126","206225.09889979847","Extended template","0","1.0481004137545824","58","yes","1024"
"0","0","0.018037291306812885","0.018037291306812885","white","yes","psycho","psycho","psycho","0","uniform","0","undefined","0","x","1","0","61","1","1","0","0","0","0","NA","61","0","61","61","0","61","1","61","61","Mon Dec  4 16:55:05 2023","A template containing a practice and an experimental phase","yes","언어학과심리실험_B조_기말과제용심리실험.osexp","E:\2023년도 1학기\언어학과심리실험","no","mono","no","18","no","black","no","no","768","psycho","58","58","0","E:\2023년도 1학기\언어학과심리실험\quickrun.csv","psycho","Lentiform Loewenfeld","3.3.14","no","벨트","artifactual","non-word","0","None","NA","return","NA","return","None","x","0.016099773347377777","NA","7246.408700011671","NA","32002.382799983025","0.016099773347377777","1566.4405000861734","2","psycho","1024","2","48000","-16","experiment","999","odd","진웬","non-word","NA","211164.08429993317","57314.34569996782","57314.29719994776","NA","50066.05329993181","2685.609399806708","57313.852299936116","NA","210441.51959987357","2762.089799856767","212837.6976000145","212838.0532998126","34766.17620000616","210657.1864997968","NA","211269.81109986082","210433.53489995934","Extended template","0","1.0642001871019602","59","yes","1024"
"0","0","0.01799333452557524","0.01799333452557524","white","yes","psycho","psycho","psycho","0","uniform","0","undefined","0","n","0","0","62","1","1","0","0","0","0","NA","62","0","62","62","0","62","1","62","62","Mon Dec  4 16:55:05 2023","A template containing a practice and an experimental phase","yes","언어학과심리실험_B조_기말과제용심리실험.osexp","E:\2023년도 1학기\언어학과심리실험","no","mono","no","18","no","black","no","no","768","psycho","59","59","0","E:\2023년도 1학기\언어학과심리실험\quickrun.csv","psycho","Lentiform Loewenfeld","3.3.14","no","해마","natural","same phoneme","0","None","NA","return","NA","return","None","x","0.015399884432554245","NA","7246.408700011671","NA","32002.382799983025","0.015399884432554245","2236.120500136167","2","psycho","1024","2","48000","-16","experiment","999","odd","해질녘","natural","NA","213668.7973998487","57314.34569996782","57314.29719994776","NA","50066.05329993181","2685.609399806708","57313.852299936116","NA","212936.93749979138","2762.089799856767","216013.87619995512","216014.23309999518","34766.17620000616","213154.23839981668","NA","213776.1674998328","212927.623399999","Extended template","0","1.0796000715345144","60","yes","1024"
"0","0","0.017967212517730525","0.017967212517730525","white","yes","psycho","psycho","psycho","0","uniform","0","undefined","0","a","1","0","63","1","1","0","0","0","0","NA","63","0","63","63","0","63","1","63","63","Mon Dec  4 16:55:05 2023","A template containing a practice and an experimental phase","yes","언어학과심리실험_B조_기말과제용심리실험.osexp","E:\2023년도 1학기\언어학과심리실험","no","mono","no","18","no","black","no","no","768","psycho","60","60","0","E:\2023년도 1학기\언어학과심리실험\quickrun.csv","psycho","Lentiform Loewenfeld","3.3.14","no","모니터","artifactual","same phoneme","0","None","NA","return","NA","return","None","a","0.016399892047047615","NA","7246.408700011671","NA","32002.382799983025","0.016399892047047615","1575.3450999036431","2","psycho","1024","2","48000","-16","experiment","999","odd","모터","artifactual","NA","216829.39129997976","57314.34569996782","57314.29719994776","NA","50066.05329993181","2685.609399806708","57313.852299936116","NA","216113.52399992757","2762.089799856767","218513.914299896","218514.27949988283","34766.17620000616","216320.76099980623","NA","216936.95140001364","216100.55169998668","Extended template","0","1.095999963581562","61","yes","1024"
"0","0","0.017930644624415907","0.017930644624415907","white","yes","psycho","psycho","psycho","0","uniform","0","undefined","0","a","1","0","64","1","1","0","0","0","0","NA","64","0","64","64","0","64","1","64","64","Mon Dec  4 16:55:05 2023","A template containing a practice and an experimental phase","yes","언어학과심리실험_B조_기말과제용심리실험.osexp","E:\2023년도 1학기\언어학과심리실험","no","mono","no","18","no","black","no","no","768","psycho","61","61","0","E:\2023년도 1학기\언어학과심리실험\quickrun.csv","psycho","Lentiform Loewenfeld","3.3.14","no","종이","artifactual","similar-environmental","0","None","NA","return","NA","return","None","a","0.015700003132224083","NA","7246.408700011671","NA","32002.382799983025","0.015700003132224083","3459.3102999497205","2","psycho","1024","2","48000","-16","experiment","999","odd","프린터","artifactual","NA","219332.722999854","57314.34569996782","57314.29719994776","NA","50066.05329993181","2685.609399806708","57313.852299936116","NA","218609.55239995383","2762.089799856767","222902.01519988477","222902.38739992492","34766.17620000616","218825.83849993534","NA","219441.10509986058","218602.7706998866","Extended template","0","1.1116999667137861","62","yes","1024"
"0","0","0.01790476149864613","0.01790476149864613","white","yes","psycho","psycho","psycho","0","uniform","0","undefined","0","n","1","0","65","1","1","0","0","0","0","NA","65","0","65","65","0","65","1","65","65","Mon Dec  4 16:55:05 2023","A template containing a practice and an experimental phase","yes","언어학과심리실험_B조_기말과제용심리실험.osexp","E:\2023년도 1학기\언어학과심리실험","no","mono","no","18","no","black","no","no","768","psycho","62","62","0","E:\2023년도 1학기\언어학과심리실험\quickrun.csv","psycho","Lentiform Loewenfeld","3.3.14","no","모래","natural","similar-environmental","0","None","NA","return","NA","return","None","n","0.016300007700920105","NA","7246.408700011671","NA","32002.382799983025","0.016300007700920105","1075.139099964872","2","psycho","1024","2","48000","-16","experiment","999","odd","자갈","natural","NA","223725.57449992746","57314.34569996782","57314.29719994776","NA","50066.05329993181","2685.609399806708","57313.852299936116","NA","223001.55089981854","2762.089799856767","224909.82109983452","224910.1874998305","34766.17620000616","223213.0910998676","NA","223833.1509998534","222989.3217999488","Extended template","0","1.1279999744147062","63","yes","1024"
"0","0","0.01787968722055666","0.01787968722055666","white","yes","psycho","psycho","psycho","0","uniform","0","undefined","0","n","1","0","66","1","1","0","0","0","0","NA","66","0","66","66","0","66","1","66","66","Mon Dec  4 16:55:05 2023","A template containing a practice and an experimental phase","yes","언어학과심리실험_B조_기말과제용심리실험.osexp","E:\2023년도 1학기\언어학과심리실험","no","mono","no","18","no","black","no","no","768","psycho","63","63","0","E:\2023년도 1학기\언어학과심리실험\quickrun.csv","psycho","Lentiform Loewenfeld","3.3.14","no","호수","natural","no-correlation","0","None","NA","return","NA","return","None","n","0.016300007700920105","NA","7246.408700011671","NA","32002.382799983025","0.016300007700920105","1374.2337999865413","2","psycho","1024","2","48000","-16","experiment","999","odd","소나무","natural","NA","225730.47890001908","57314.34569996782","57314.29719994776","NA","50066.05329993181","2685.609399806708","57313.852299936116","NA","225015.12939995155","2762.089799856767","227213.92539981753","227214.31399998255","34766.17620000616","225222.62109979056","NA","225838.0716999527","225002.3892999161","Extended template","0","1.1442999821156263","64","yes","1024"
"0","0","0.017987693158479836","0.017987693158479836","white","yes","psycho","psycho","psycho","0","uniform","0","undefined","0","n","1","0","67","1","1","0","0","0","0","NA","67","0","67","67","0","67","1","67","67","Mon Dec  4 16:55:05 2023","A template containing a practice and an experimental phase","yes","언어학과심리실험_B조_기말과제용심리실험.osexp","E:\2023년도 1학기\언어학과심리실험","no","mono","no","18","no","black","no","no","768","psycho","64","64","0","E:\2023년도 1학기\언어학과심리실험\quickrun.csv","psycho","Lentiform Loewenfeld","3.3.14","no","바다","natural","same phoneme","0","None","NA","return","NA","return","None","n","0.024900073185563087","NA","7246.408700011671","NA","32002.382799983025","0.024900073185563087","1437.0475998148322","2","psycho","1024","2","48000","-16","experiment","999","odd","바퀴벌레","natural","NA","228025.377899874","57314.34569996782","57314.29719994776","NA","50066.05329993181","2685.609399806708","57313.852299936116","NA","227310.19009999","2762.089799856767","229570.10709983297","229570.7248998806","34766.17620000616","227518.25640001334","NA","228131.22310000472","227299.39979990013","Extended template","0","1.1692000553011894","65","yes","1024"
"0","0","0.017963639093619404","0.017963639093619404","white","yes","psycho","psycho","psycho","0","uniform","0","undefined","0","a","1","0","68","1","1","0","0","0","0","NA","68","0","68","68","0","68","1","68","68","Mon Dec  4 16:55:05 2023","A template containing a practice and an experimental phase","yes","언어학과심리실험_B조_기말과제용심리실험.osexp","E:\2023년도 1학기\언어학과심리실험","no","mono","no","18","no","black","no","no","768","psycho","65","65","0","E:\2023년도 1학기\언어학과심리실험\quickrun.csv","psycho","Lentiform Loewenfeld","3.3.14","no","기차","artifactual","no-correlation","0","None","NA","return","NA","return","None","a","0.01640012487769127","NA","7246.408700011671","NA","32002.382799983025","0.01640012487769127","1257.6859002001584","2","psycho","1024","2","48000","-16","experiment","999","odd","가방","artifactual","NA","230414.8626998067","57314.34569996782","57314.29719994776","NA","50066.05329993181","2685.609399806708","57313.852299936116","NA","229673.33219991997","2762.089799856767","231789.9306998588","231790.3255999554","34766.17620000616","229889.99299984425","NA","230530.6139998138","229663.87419984676","Extended template","0","1.1856001801788807","66","yes","1024"
"0","0","0.01794030306054585","0.01794030306054585","white","yes","psycho","psycho","psycho","0","uniform","0","undefined","0","a","0","0","69","1","1","0","0","0","0","NA","69","0","69","69","0","69","1","69","69","Mon Dec  4 16:55:05 2023","A template containing a practice and an experimental phase","yes","언어학과심리실험_B조_기말과제용심리실험.osexp","E:\2023년도 1학기\언어학과심리실험","no","mono","no","18","no","black","no","no","768","psycho","66","66","0","E:\2023년도 1학기\언어학과심리실험\quickrun.csv","psycho","Lentiform Loewenfeld","3.3.14","no","국가","artifactual","inclusive","0","None","NA","return","NA","return","None","x","0.01640012487769127","NA","7246.408700011671","NA","32002.382799983025","0.01640012487769127","1829.8471001908183","2","psycho","1024","2","48000","-16","experiment","999","odd","대한민국","artifactual","NA","232610.29869993217","57314.34569996782","57314.29719994776","NA","50066.05329993181","2685.609399806708","57313.852299936116","NA","231885.89199981652","2762.089799856767","234549.413099885","234549.8096998781","34766.17620000616","232101.4090999961","NA","232718.43229979277","231878.77730000764","Extended template","0","1.202000305056572","67","yes","1024"
"0","0","0.017920594580252382","0.017920594580252382","white","yes","psycho","psycho","psycho","0","uniform","0","undefined","0","n","1","0","70","1","1","0","0","0","0","NA","70","0","70","70","0","70","1","70","70","Mon Dec  4 16:55:05 2023","A template containing a practice and an experimental phase","yes","언어학과심리실험_B조_기말과제용심리실험.osexp","E:\2023년도 1학기\언어학과심리실험","no","mono","no","18","no","black","no","no","768","psycho","67","67","0","E:\2023년도 1학기\언어학과심리실험\quickrun.csv","psycho","Lentiform Loewenfeld","3.3.14","no","대학교","artifactual","no-correlation","0","None","NA","return","NA","return","None","n","0.016600126400589943","NA","7246.408700011671","NA","32002.382799983025","0.016600126400589943","1328.851900063455","2","psycho","1024","2","48000","-16","experiment","999","odd","계곡","natural","NA","235371.29119993187","57314.34569996782","57314.29719994776","NA","50066.05329993181","2685.609399806708","57313.852299936116","NA","234648.6751998309","2762.089799856767","236810.01429981552","236810.4032999836","34766.17620000616","234864.36749994755","NA","235479.47659995407","234636.61399995908","Extended template","0","1.218600431457162","68","yes","1024"
"0","0","0.017894209241089615","0.017894209241089615","white","yes","psycho","psycho","psycho","0","uniform","0","undefined","0","n","1","0","71","1","1","0","0","0","0","NA","71","0","71","71","0","71","1","71","71","Mon Dec  4 16:55:05 2023","A template containing a practice and an experimental phase","yes","언어학과심리실험_B조_기말과제용심리실험.osexp","E:\2023년도 1학기\언어학과심리실험","no","mono","no","18","no","black","no","no","768","psycho","68","68","0","E:\2023년도 1학기\언어학과심리실험\quickrun.csv","psycho","Lentiform Loewenfeld","3.3.14","no","밤하늘","natural","no-correlation","0","None","NA","return","NA","return","None","n","0.01610000617802143","NA","7246.408700011671","NA","32002.382799983025","0.01610000617802143","2729.8314999789","2","psycho","1024","2","48000","-16","experiment","999","odd","바위","natural","NA","237626.56589993276","57314.34569996782","57314.29719994776","NA","50066.05329993181","2685.609399806708","57313.852299936116","NA","236902.98629994504","2762.089799856767","240473.50979992189","240473.906399915","34766.17620000616","237117.8044998087","NA","237742.3783999402","236893.79389979877","Extended template","0","1.2347004376351833","69","yes","1024"
"0","0","0.017854291945695877","0.017854291945695877","white","yes","psycho","psycho","psycho","0","uniform","0","undefined","0","a","0","0","72","1","1","0","0","0","0","NA","72","0","72","72","0","72","1","72","72","Mon Dec  4 16:55:05 2023","A template containing a practice and an experimental phase","yes","언어학과심리실험_B조_기말과제용심리실험.osexp","E:\2023년도 1학기\언어학과심리실험","no","mono","no","18","no","black","no","no","768","psycho","69","69","0","E:\2023년도 1학기\언어학과심리실험\quickrun.csv","psycho","Lentiform Loewenfeld","3.3.14","no","성적표","artifactual","same phoneme","0","None","NA","return","NA","return","None","n","0.015099998563528061","NA","7246.408700011671","NA","32002.382799983025","0.015099998563528061","1341.6232001036406","2","psycho","1024","2","48000","-16","experiment","999","odd","성냥","artifactual","NA","241318.92709992826","57314.34569996782","57314.29719994776","NA","50066.05329993181","2685.609399806708","57313.852299936116","NA","240587.33189990744","2762.089799856767","242769.9472999666","242770.38929983974","34766.17620000616","240803.3058999572","NA","241426.68419983238","240573.66889994591","Extended template","0","1.2498004361987114","70","yes","1024"
"0","0","0.017846485232593308","0.017846485232593308","white","yes","psycho","psycho","psycho","0","uniform","0","undefined","0","n","1","0","73","1","1","0","0","0","0","NA","73","0","73","73","0","73","1","73","73","Mon Dec  4 16:55:05 2023","A template containing a practice and an experimental phase","yes","언어학과심리실험_B조_기말과제용심리실험.osexp","E:\2023년도 1학기\언어학과심리실험","no","mono","no","18","no","black","no","no","768","psycho","70","70","0","E:\2023년도 1학기\언어학과심리실험\quickrun.csv","psycho","Lentiform Loewenfeld","3.3.14","no","해질녘","natural","same phoneme","0","None","NA","return","NA","return","None","n","0.017300015315413475","NA","7246.408700011671","NA","32002.382799983025","0.017300015315413475","3025.685700122267","2","psycho","1024","2","48000","-16","experiment","999","odd","해마","natural","NA","243598.3554997947","57314.34569996782","57314.29719994776","NA","50066.05329993181","2685.609399806708","57313.852299936116","NA","242874.93129982613","2762.089799856767","246733.66879997775","246734.07789994963","34766.17620000616","243090.29899979942","NA","243706.64499979466","242860.98869983107","Extended template","0","1.2671004515141249","71","yes","1024"
"0","0","0.017940283416666918","0.017940283416666918","white","yes","psycho","psycho","psycho","0","uniform","0","undefined","0","a","1","0","74","1","1","0","0","0","0","NA","74","0","74","74","0","74","1","74","74","Mon Dec  4 16:55:05 2023","A template containing a practice and an experimental phase","yes","언어학과심리실험_B조_기말과제용심리실험.osexp","E:\2023년도 1학기\언어학과심리실험","no","mono","no","18","no","black","no","no","768","psycho","71","71","0","E:\2023년도 1학기\언어학과심리실험\quickrun.csv","psycho","Lentiform Loewenfeld","3.3.14","no","마우스","artifactual","no-correlation","0","None","NA","return","NA","return","None","a","0.02459995448589325","NA","7246.408700011671","NA","32002.382799983025","0.02459995448589325","5965.818099910393","2","psycho","1024","2","48000","-16","experiment","999","odd","모자","artifactual","NA","247558.7247000076","57314.34569996782","57314.29719994776","NA","50066.05329993181","2685.609399806708","57313.852299936116","NA","246835.27309983037","2762.089799856767","253634.26299998537","253634.68889985234","34766.17620000616","247050.39169988595","NA","247666.46460001357","246821.40149991028","Extended template","0","1.2917004060000181","72","yes","1024"
"0","0","0.01801918452120807","0.01801918452120807","white","yes","psycho","psycho","psycho","0","uniform","0","undefined","0","n","1","0","75","1","1","0","0","0","0","NA","75","0","75","75","0","75","1","75","75","Mon Dec  4 16:55:05 2023","A template containing a practice and an experimental phase","yes","언어학과심리실험_B조_기말과제용심리실험.osexp","E:\2023년도 1학기\언어학과심리실험","no","mono","no","18","no","black","no","no","768","psycho","72","72","0","E:\2023년도 1학기\언어학과심리실험\quickrun.csv","psycho","Lentiform Loewenfeld","3.3.14","no","전등","artifactual","no-correlation","0","None","NA","return","NA","return","None","n","0.023700064048171043","NA","7246.408700011671","NA","32002.382799983025","0.023700064048171043","1167.6008999347687","2","psycho","1024","2","48000","-16","experiment","999","odd","소","natural","NA","254470.74219980277","57314.34569996782","57314.29719994776","NA","50066.05329993181","2685.609399806708","57313.852299936116","NA","253747.13699985296","2762.089799856767","255749.61559986696","255750.1238998957","34766.17620000616","253963.01539987326","NA","254580.67719987594","253736.00009991787","Extended template","0","1.3154004700481892","73","yes","1024"
"0","0","0.017982438785602916","0.017982438785602916","white","yes","psycho","psycho","psycho","0","uniform","0","undefined","0","a","1","0","76","1","1","0","0","0","0","NA","76","0","76","76","0","76","1","76","76","Mon Dec  4 16:55:05 2023","A template containing a practice and an experimental phase","yes","언어학과심리실험_B조_기말과제용심리실험.osexp","E:\2023년도 1학기\언어학과심리실험","no","mono","no","18","no","black","no","no","768","psycho","73","73","0","E:\2023년도 1학기\언어학과심리실험\quickrun.csv","psycho","Lentiform Loewenfeld","3.3.14","no","옷","artifactual","inclusive","0","None","NA","return","NA","return","None","a","0.015300000086426735","NA","7246.408700011671","NA","32002.382799983025","0.015300000086426735","2080.805799923837","2","psycho","1024","2","48000","-16","experiment","999","odd","코트","artifactual","NA","256575.40339999832","57314.34569996782","57314.29719994776","NA","50066.05329993181","2685.609399806708","57313.852299936116","NA","255851.79139999673","2762.089799856767","258765.93969995156","258766.3816998247","34766.17620000616","256067.38769984804","NA","256683.37059998885","255838.0219999235","Extended template","0","1.330700470134616","74","yes","1024"
"0","0","0.0179600032667319","0.0179600032667319","white","yes","psycho","psycho","psycho","0","uniform","0","undefined","0","a","1","0","77","1","1","0","0","0","0","NA","77","0","77","77","0","77","1","77","77","Mon Dec  4 16:55:05 2023","A template containing a practice and an experimental phase","yes","언어학과심리실험_B조_기말과제용심리실험.osexp","E:\2023년도 1학기\언어학과심리실험","no","mono","no","18","no","black","no","no","768","psycho","74","74","0","E:\2023년도 1학기\언어학과심리실험\quickrun.csv","psycho","Lentiform Loewenfeld","3.3.14","no","건물","artifactual","inclusive","0","None","NA","return","NA","return","None","a","0.01629977487027645","NA","7246.408700011671","NA","32002.382799983025","0.01629977487027645","2489.123299950734","2","psycho","1024","2","48000","-16","experiment","999","odd","병원","artifactual","NA","259587.4189999886","57314.34569996782","57314.29719994776","NA","50066.05329993181","2685.609399806708","57313.852299936116","NA","258863.90469991602","2762.089799856767","262186.04970001616","262186.4763998892","34766.17620000616","259079.26689996384","NA","259695.12439984828","258855.42709985748","Extended template","0","1.3470002450048923","75","yes","1024"
"0","0","0.01797632093688375","0.01797632093688375","white","yes","psycho","psycho","psycho","0","uniform","0","undefined","0","n","1","0","78","1","1","0","0","0","0","NA","78","0","78","78","0","78","1","78","78","Mon Dec  4 16:55:05 2023","A template containing a practice and an experimental phase","yes","언어학과심리실험_B조_기말과제용심리실험.osexp","E:\2023년도 1학기\언어학과심리실험","no","mono","no","18","no","black","no","no","768","psycho","75","75","0","E:\2023년도 1학기\언어학과심리실험\quickrun.csv","psycho","Lentiform Loewenfeld","3.3.14","no","숲","natural","inclusive","0","None","NA","return","NA","return","None","n","0.019200146198272705","NA","7246.408700011671","NA","32002.382799983025","0.019200146198272705","989.751499844715","2","psycho","1024","2","48000","-16","experiment","999","odd","나무","natural","NA","263005.12029998936","57314.34569996782","57314.29719994776","NA","50066.05329993181","2685.609399806708","57313.852299936116","NA","262281.415999867","2762.089799856767","264101.9626997877","264102.4073997978","34766.17620000616","262498.091599904","NA","263110.53159995936","262273.6239999067","Extended template","0","1.366200391203165","76","yes","1024"
"0","0","0.017977927436495757","0.017977927436495757","white","yes","psycho","psycho","psycho","0","uniform","0","undefined","0","a","1","0","79","1","1","0","0","0","0","NA","79","0","79","79","0","79","1","79","79","Mon Dec  4 16:55:05 2023","A template containing a practice and an experimental phase","yes","언어학과심리실험_B조_기말과제용심리실험.osexp","E:\2023년도 1학기\언어학과심리실험","no","mono","no","18","no","black","no","no","768","psycho","76","76","0","E:\2023년도 1학기\언어학과심리실험\quickrun.csv","psycho","Lentiform Loewenfeld","3.3.14","no","호수","natural","no-correlation","0","None","NA","return","NA","return","None","a","0.01810002140700817","NA","7246.408700011671","NA","32002.382799983025","0.01810002140700817","1994.4006998557597","2","psycho","1024","2","48000","-16","experiment","999","odd","대학교","artifactual","NA","264919.0948999021","57314.34569996782","57314.29719994776","NA","50066.05329993181","2685.609399806708","57313.852299936116","NA","264195.73589996435","2762.089799856767","267021.82469982654","267022.257699864","34766.17620000616","264412.04499988817","NA","265025.9092999622","264187.7958998084","Extended template","0","1.3843004126101732","77","yes","1024"
"0","0","0.01795000683229703","0.01795000683229703","white","yes","psycho","psycho","psycho","0","uniform","0","undefined","0","n","1","0","80","1","1","0","0","0","0","NA","80","0","80","80","0","80","1","80","80","Mon Dec  4 16:55:05 2023","A template containing a practice and an experimental phase","yes","언어학과심리실험_B조_기말과제용심리실험.osexp","E:\2023년도 1학기\언어학과심리실험","no","mono","no","18","no","black","no","no","768","psycho","77","77","0","E:\2023년도 1학기\언어학과심리실험\quickrun.csv","psycho","Lentiform Loewenfeld","3.3.14","no","의자","artifactual","no-correlation","0","None","NA","return","NA","return","None","n","0.015800120308995247","NA","7246.408700011671","NA","32002.382799983025","0.015800120308995247","925.4447999410331","2","psycho","1024","2","48000","-16","experiment","999","odd","행성","natural","NA","267836.4341999404","57314.34569996782","57314.29719994776","NA","50066.05329993181","2685.609399806708","57313.852299936116","NA","267114.8207997903","2762.089799856767","268873.98689985275","268874.42080001347","34766.17620000616","267321.0503999144","NA","267946.88309985213","267104.6751998365","Extended template","0","1.4001005329191685","78","yes","1024"
"0","0","0.017925324743684336","0.017925324743684336","white","yes","psycho","psycho","psycho","0","uniform","0","undefined","0","a","0","0","81","1","1","0","0","0","0","NA","81","0","81","81","0","81","1","81","81","Mon Dec  4 16:55:05 2023","A template containing a practice and an experimental phase","yes","언어학과심리실험_B조_기말과제용심리실험.osexp","E:\2023년도 1학기\언어학과심리실험","no","mono","no","18","no","black","no","no","768","psycho","78","78","0","E:\2023년도 1학기\언어학과심리실험\quickrun.csv","psycho","Lentiform Loewenfeld","3.3.14","no","학적","artifactual","same phoneme","0","None","NA","return","NA","return","None","x","0.01600012183189392","NA","7246.408700011671","NA","32002.382799983025","0.01600012183189392","1590.4331000056118","2","psycho","1024","2","48000","-16","experiment","999","odd","학술","artifactual","NA","269694.22489986755","57314.34569996782","57314.29719994776","NA","50066.05329993181","2685.609399806708","57313.852299936116","NA","268970.95809993334","2762.089799856767","271393.8727998175","271394.3140998017","34766.17620000616","269186.22249993496","NA","269801.8149000127","268962.27809996344","Extended template","0","1.4161006547510624","79","yes","1024"
"0","0","0.017907508299686015","0.017907508299686015","white","yes","psycho","psycho","psycho","0","uniform","0","undefined","0","n","1","0","82","1","1","0","0","0","0","NA","82","0","82","82","0","82","1","82","82","Mon Dec  4 16:55:05 2023","A template containing a practice and an experimental phase","yes","언어학과심리실험_B조_기말과제용심리실험.osexp","E:\2023년도 1학기\언어학과심리실험","no","mono","no","18","no","black","no","no","768","psycho","79","79","0","E:\2023년도 1학기\언어학과심리실험\quickrun.csv","psycho","Lentiform Loewenfeld","3.3.14","no","장슈","non-word","non-word","0","None","NA","return","NA","return","None","n","0.01650000922381878","NA","7246.408700011671","NA","32002.382799983025","0.01650000922381878","1218.0625000037253","2","psycho","1024","2","48000","-16","experiment","999","odd","다람쥐","natural","NA","272230.6958998088","57314.34569996782","57314.29719994776","NA","50066.05329993181","2685.609399806708","57313.852299936116","NA","271498.98719997145","2762.089799856767","273557.91259999387","273558.37420001626","34766.17620000616","271715.952700004","NA","272338.1883997936","271483.62690000795","Extended template","0","1.4326006639748812","80","yes","1024"
