"acc","accuracy","average_response_time","avg_rt","background","bidi","canvas_backend","clock_backend","color_backend","compensation","coordinates","correct","correct_instructions","correct_keyboard_response","correct_response","correct_target","count_about_this_template","count_blank","count_block_loop","count_block_sequence","count_end_of_experiment","count_end_of_practice","count_experiment","count_experimental_loop","count_feedback","count_fixation","count_instructions","count_keyboard_response","count_logger","count_practice_loop","count_prime","count_reset_feedback","count_target","count_trial_sequence","datetime","description","disable_garbage_collection","experiment_file","experiment_path","font_bold","font_family","font_italic","font_size","font_underline","foreground","form_clicks","fullscreen","height","keyboard_backend","live_row","live_row_block_loop","live_row_practice_loop","logfile","mouse_backend","opensesame_codename","opensesame_version","practice","prime","prime_condition","relation","repeat_cycle","response","response_end_of_experiment","response_end_of_practice","response_feedback","response_instructions","response_keyboard_response","response_target","response_time","response_time_end_of_experiment","response_time_end_of_practice","response_time_feedback","response_time_instructions","response_time_keyboard_response","response_time_target","round_decimals","sampler_backend","sound_buf_size","sound_channels","sound_freq","sound_sample_size","start","subject_nr","subject_parity","target","target_condition","time_about_this_template","time_blank","time_block_loop","time_block_sequence","time_end_of_experiment","time_end_of_practice","time_experiment","time_experimental_loop","time_feedback","time_fixation","time_instructions","time_keyboard_response","time_logger","time_practice_loop","time_prime","time_reset_feedback","time_target","time_trial_sequence","title","total_correct","total_response_time","total_responses","uniform_coordinates","width"
"0","0","0.01619989052414894","0.01619989052414894","white","yes","psycho","psycho","psycho","0","uniform","0","undefined","0","n","1","0","0","0","0","0","0","0","0","NA","0","0","0","0","0","0","0","0","0","Mon Dec  4 12:37:33 2023","A template containing a practice and an experimental phase","yes","언어학과심리실험_B조_기말과제용심리실험.osexp","E:\2023년도 1학기\언어학과심리실험","no","mono","no","18","no","black","no","no","768","psycho","0","0","0","E:\2023년도 1학기\언어학과심리실험\quickrun.csv","psycho","Lentiform Loewenfeld","3.3.14","yes","동굴","natural","similar-environmental","0","None","NA","NA","NA","g","None","n","0.01619989052414894","NA","NA","NA","33913.79359993152","0.01619989052414894","3792.3828999046236","2","psycho","1024","2","48000","-16","experiment","999","odd","박쥐","natural","NA","37856.17159982212","37052.93729994446","37052.83800000325","NA","NA","3082.61049981229","NA","NA","37143.56289990246","3137.2660999186337","41755.62519999221","41755.71519997902","37052.38779983483","37350.62499996275","NA","37962.71419990808","37102.34689991921","Extended template","0","0.01619989052414894","1","yes","1024"
"0","0","0.019000028260052204","0.019000028260052204","white","yes","psycho","psycho","psycho","0","uniform","0","undefined","0","a","1","0","1","0","0","0","0","0","0","NA","1","0","1","1","0","1","0","1","1","Mon Dec  4 12:37:33 2023","A template containing a practice and an experimental phase","yes","언어학과심리실험_B조_기말과제용심리실험.osexp","E:\2023년도 1학기\언어학과심리실험","no","mono","no","18","no","black","no","no","768","psycho","1","1","0","E:\2023년도 1학기\언어학과심리실험\quickrun.csv","psycho","Lentiform Loewenfeld","3.3.14","yes","키보드","artifactual","similar-environmental","0","None","NA","NA","NA","g","None","a","0.021800165995955467","NA","NA","NA","33913.79359993152","0.021800165995955467","5101.6343999654055","2","psycho","1024","2","48000","-16","experiment","999","odd","컴퓨터","artifactual","NA","42733.367200009525","37052.93729994446","37052.83800000325","NA","NA","3082.61049981229","NA","NA","42017.998499795794","3137.2660999186337","47943.684599827975","47943.80269991234","37052.38779983483","42224.28379999474","NA","42841.44439990632","42009.54839983024","Extended template","0","0.03800005652010441","2","yes","1024"
"0","0","0.017933314666152","0.017933314666152","white","yes","psycho","psycho","psycho","0","uniform","0","undefined","0","a","0","0","2","0","0","0","0","0","0","NA","2","0","2","2","0","2","0","2","2","Mon Dec  4 12:37:33 2023","A template containing a practice and an experimental phase","yes","언어학과심리실험_B조_기말과제용심리실험.osexp","E:\2023년도 1학기\언어학과심리실험","no","mono","no","18","no","black","no","no","768","psycho","2","2","0","E:\2023년도 1학기\언어학과심리실험\quickrun.csv","psycho","Lentiform Loewenfeld","3.3.14","yes","바다","natural","similar-environmental","0","None","NA","NA","NA","g","None","n","0.015799887478351593","NA","NA","NA","33913.79359993152","0.015799887478351593","8610.201300121844","2","psycho","1024","2","48000","-16","experiment","999","odd","배","artifactual","NA","48750.75789983384","37052.93729994446","37052.83800000325","NA","NA","3082.61049981229","NA","NA","48040.415399940684","3137.2660999186337","57467.61459996924","57467.728099785745","37052.38779983483","48246.44019990228","NA","48856.85239988379","48029.63809994981","Extended template","0","0.053799943998456","3","yes","1024"
"0","0","0.015300000086426735","0.015300000086426735","white","yes","psycho","psycho","psycho","0","uniform","0","undefined","0","n","1","0","3","1","1","0","0","0","0","NA","3","0","3","3","0","3","1","3","3","Mon Dec  4 12:37:33 2023","A template containing a practice and an experimental phase","yes","언어학과심리실험_B조_기말과제용심리실험.osexp","E:\2023년도 1학기\언어학과심리실험","no","mono","no","18","no","black","no","no","768","psycho","0","0","0","E:\2023년도 1학기\언어학과심리실험\quickrun.csv","psycho","Lentiform Loewenfeld","3.3.14","no","세금","artifactual","same phoneme","0","None","NA","f","NA","g","None","n","0.015300000086426735","NA","8950.514500029385","NA","33913.79359993152","0.015300000086426735","2394.2277000751346","2","psycho","1024","2","48000","-16","experiment","999","odd","세포","natural","NA","67276.10039990395","66508.0152999144","66507.97149981372","NA","57556.51019979268","3082.61049981229","66507.53439986147","NA","66557.93249979615","3137.2660999186337","69775.61859996058","69775.71680000983","37052.38779983483","66771.25200000592","NA","67380.86169981398","66543.68609981611","Extended template","0","0.015300000086426735","1","yes","1024"
"0","0","0.015199999324977398","0.015199999324977398","white","yes","psycho","psycho","psycho","0","uniform","0","undefined","0","n","1","0","4","1","1","0","0","0","0","NA","4","0","4","4","0","4","1","4","4","Mon Dec  4 12:37:33 2023","A template containing a practice and an experimental phase","yes","언어학과심리실험_B조_기말과제용심리실험.osexp","E:\2023년도 1학기\언어학과심리실험","no","mono","no","18","no","black","no","no","768","psycho","1","1","0","E:\2023년도 1학기\언어학과심리실험\quickrun.csv","psycho","Lentiform Loewenfeld","3.3.14","no","풍차","artifactual","no-correlation","0","None","NA","f","NA","g","None","n","0.015099998563528061","NA","8950.514500029385","NA","33913.79359993152","0.015099998563528061","3401.9599000457674","2","psycho","1024","2","48000","-16","experiment","999","odd","흙","natural","NA","70572.32839986682","66508.0152999144","66507.97149981372","NA","57556.51019979268","3082.61049981229","66507.53439986147","NA","69860.25499994867","3137.2660999186337","74079.63179983199","74079.73079988733","37052.38779983483","70066.63239980116","NA","70677.12669982575","69851.6785998363","Extended template","0","0.030399998649954796","2","yes","1024"
"0","0","0.015633335957924526","0.015633335957924526","white","yes","psycho","psycho","psycho","0","uniform","0","undefined","0","n","1","0","5","1","1","0","0","0","0","NA","5","0","5","5","0","5","1","5","5","Mon Dec  4 12:37:33 2023","A template containing a practice and an experimental phase","yes","언어학과심리실험_B조_기말과제용심리실험.osexp","E:\2023년도 1학기\언어학과심리실험","no","mono","no","18","no","black","no","no","768","psycho","2","2","0","E:\2023년도 1학기\언어학과심리실험\quickrun.csv","psycho","Lentiform Loewenfeld","3.3.14","no","오일","natural","same phoneme","0","None","NA","f","NA","g","None","n","0.01650000922381878","NA","8950.514500029385","NA","33913.79359993152","0.01650000922381878","1165.0541999842972","2","psycho","1024","2","48000","-16","experiment","999","odd","오리","natural","NA","74881.10919995233","66508.0152999144","66507.97149981372","NA","57556.51019979268","3082.61049981229","66507.53439986147","NA","74169.349799864","3137.2660999186337","76151.62329981104","76151.72649989836","37052.38779983483","74375.52209990099","NA","74986.02269985713","74154.96749989688","Extended template","0","0.046900007873773575","3","yes","1024"
"0","0","0.015624973457306623","0.015624973457306623","white","yes","psycho","psycho","psycho","0","uniform","0","undefined","0","n","1","0","6","1","1","0","0","0","0","NA","6","0","6","6","0","6","1","6","6","Mon Dec  4 12:37:33 2023","A template containing a practice and an experimental phase","yes","언어학과심리실험_B조_기말과제용심리실험.osexp","E:\2023년도 1학기\언어학과심리실험","no","mono","no","18","no","black","no","no","768","psycho","3","3","0","E:\2023년도 1학기\언어학과심리실험\quickrun.csv","psycho","Lentiform Loewenfeld","3.3.14","no","늪","natural","similar-environmental","0","None","NA","f","NA","g","None","n","0.015599885955452919","NA","8950.514500029385","NA","33913.79359993152","0.015599885955452919","1628.0211999546736","2","psycho","1024","2","48000","-16","experiment","999","odd","악어","natural","NA","76946.00699981675","66508.0152999144","66507.97149981372","NA","57556.51019979268","3082.61049981229","66507.53439986147","NA","76233.86719985865","3137.2660999186337","78679.63499994949","78679.74439985119","37052.38779983483","76440.36369980313","NA","77051.04419984855","76226.57649987377","Extended template","0","0.062499893829226494","4","yes","1024"
"0","0","0.015899958088994026","0.015899958088994026","white","yes","psycho","psycho","psycho","0","uniform","0","undefined","0","a","1","0","7","1","1","0","0","0","0","NA","7","0","7","7","0","7","1","7","7","Mon Dec  4 12:37:33 2023","A template containing a practice and an experimental phase","yes","언어학과심리실험_B조_기말과제용심리실험.osexp","E:\2023년도 1학기\언어학과심리실험","no","mono","no","18","no","black","no","no","768","psycho","4","4","0","E:\2023년도 1학기\언어학과심리실험\quickrun.csv","psycho","Lentiform Loewenfeld","3.3.14","no","바람","natural","similar-environmental","0","None","NA","f","NA","g","None","a","0.016999896615743637","NA","8950.514500029385","NA","33913.79359993152","0.016999896615743637","971.4179001748562","2","psycho","1024","2","48000","-16","experiment","999","odd","창문","artifactual","NA","79482.50629985705","66508.0152999144","66507.97149981372","NA","57556.51019979268","3082.61049981229","66507.53439986147","NA","78769.5601999294","3137.2660999186337","80559.52379992232","80559.63829997927","37052.38779983483","78978.00589981489","NA","79587.56569982506","78755.16369985417","Extended template","0","0.07949979044497013","5","yes","1024"
"0","0","0.015983280415336292","0.015983280415336292","white","yes","psycho","psycho","psycho","0","uniform","0","undefined","0","a","1","0","8","1","1","0","0","0","0","NA","8","0","8","8","0","8","1","8","8","Mon Dec  4 12:37:33 2023","A template containing a practice and an experimental phase","yes","언어학과심리실험_B조_기말과제용심리실험.osexp","E:\2023년도 1학기\언어학과심리실험","no","mono","no","18","no","black","no","no","768","psycho","5","5","0","E:\2023년도 1학기\언어학과심리실험\quickrun.csv","psycho","Lentiform Loewenfeld","3.3.14","no","건물","artifactual","inclusive","0","None","NA","f","NA","g","None","a","0.016399892047047615","NA","8950.514500029385","NA","33913.79359993152","0.016399892047047615","761.6755999624729","2","psycho","1024","2","48000","-16","experiment","999","odd","병원","artifactual","NA","81354.36669993214","66508.0152999144","66507.97149981372","NA","57556.51019979268","3082.61049981229","66507.53439986147","NA","80641.89029997215","3137.2660999186337","82223.70239999145","82223.82009983994","37052.38779983483","80848.19879988208","NA","81461.43039991148","80634.75829991512","Extended template","0","0.09589968249201775","6","yes","1024"
"0","0","0.015928509778210094","0.015928509778210094","white","yes","psycho","psycho","psycho","0","uniform","0","undefined","0","n","1","0","9","1","1","0","0","0","0","NA","9","0","9","9","0","9","1","9","9","Mon Dec  4 12:37:33 2023","A template containing a practice and an experimental phase","yes","언어학과심리실험_B조_기말과제용심리실험.osexp","E:\2023년도 1학기\언어학과심리실험","no","mono","no","18","no","black","no","no","768","psycho","6","6","0","E:\2023년도 1학기\언어학과심리실험\quickrun.csv","psycho","Lentiform Loewenfeld","3.3.14","no","경주","artifactual","no-correlation","0","None","NA","f","NA","g","None","n","0.015599885955452919","NA","8950.514500029385","NA","33913.79359993152","0.015599885955452919","1493.3570001740009","2","psycho","1024","2","48000","-16","experiment","999","odd","소나무","natural","NA","83015.86179994047","66508.0152999144","66507.97149981372","NA","57556.51019979268","3082.61049981229","66507.53439986147","NA","82304.09649992362","3137.2660999186337","84615.6560999807","84615.79059995711","37052.38779983483","82510.84739994258","NA","83121.7210998293","82296.71389982104","Extended template","0","0.11149956844747066","7","yes","1024"
"0","0","0.016387435607612133","0.016387435607612133","white","yes","psycho","psycho","psycho","0","uniform","0","undefined","0","x","1","0","10","1","1","0","0","0","0","NA","10","0","10","10","0","10","1","10","10","Mon Dec  4 12:37:33 2023","A template containing a practice and an experimental phase","yes","언어학과심리실험_B조_기말과제용심리실험.osexp","E:\2023년도 1학기\언어학과심리실험","no","mono","no","18","no","black","no","no","768","psycho","7","7","0","E:\2023년도 1학기\언어학과심리실험\quickrun.csv","psycho","Lentiform Loewenfeld","3.3.14","no","벨트","artifactual","non-word","0","None","NA","f","NA","g","None","x","0.0195999164134264","NA","8950.514500029385","NA","33913.79359993152","0.0195999164134264","5041.372900130227","2","psycho","1024","2","48000","-16","experiment","999","odd","진웬","non-word","NA","85412.77719987556","66508.0152999144","66507.97149981372","NA","57556.51019979268","3082.61049981229","66507.53439986147","NA","84700.56599983945","3137.2660999186337","90559.68339997344","90559.81379980221","37052.38779983483","84907.46199991554","NA","85517.70189986564","84691.38789991848","Extended template","0","0.13109948486089706","8","yes","1024"
"0","0","0.016488807482851878","0.016488807482851878","white","yes","psycho","psycho","psycho","0","uniform","0","undefined","0","a","1","0","11","1","1","0","0","0","0","NA","11","0","11","11","0","11","1","11","11","Mon Dec  4 12:37:33 2023","A template containing a practice and an experimental phase","yes","언어학과심리실험_B조_기말과제용심리실험.osexp","E:\2023년도 1학기\언어학과심리실험","no","mono","no","18","no","black","no","no","768","psycho","8","8","0","E:\2023년도 1학기\언어학과심리실험\quickrun.csv","psycho","Lentiform Loewenfeld","3.3.14","no","계곡","natural","no-correlation","0","None","NA","f","NA","g","None","a","0.01729978248476982","NA","8950.514500029385","NA","33913.79359993152","0.01729978248476982","1072.6892000529915","2","psycho","1024","2","48000","-16","experiment","999","odd","화장실","artifactual","NA","91360.52519991063","66508.0152999144","66507.97149981372","NA","57556.51019979268","3082.61049981229","66507.53439986147","NA","90648.47679995","3137.2660999186337","92544.15339999832","92544.28869998083","37052.38779983483","90855.01379985362","NA","91470.36299994215","90636.793699814","Extended template","0","0.14839926734566689","9","yes","1024"
"0","0","0.0165299279615283","0.0165299279615283","white","yes","psycho","psycho","psycho","0","uniform","0","undefined","0","x","1","0","12","1","1","0","0","0","0","NA","12","0","12","12","0","12","1","12","12","Mon Dec  4 12:37:33 2023","A template containing a practice and an experimental phase","yes","언어학과심리실험_B조_기말과제용심리실험.osexp","E:\2023년도 1학기\언어학과심리실험","no","mono","no","18","no","black","no","no","768","psycho","9","9","0","E:\2023년도 1학기\언어학과심리실험\quickrun.csv","psycho","Lentiform Loewenfeld","3.3.14","no","냉장고","artifactual","non-word","0","None","NA","f","NA","g","None","x","0.016900012269616127","NA","8950.514500029385","NA","33913.79359993152","0.016900012269616127","2154.726600041613","2","psycho","1024","2","48000","-16","experiment","999","odd","로방삭","non-word","NA","93338.17439991981","66508.0152999144","66507.97149981372","NA","57556.51019979268","3082.61049981229","66507.53439986147","NA","92627.32869992033","3137.2660999186337","95607.64739988372","95607.78259998187","37052.38779983483","92833.78609991632","NA","93452.30669993907","92620.2767000068","Extended template","0","0.165299279615283","10","yes","1024"
"0","0","0.016527208076281982","0.016527208076281982","white","yes","psycho","psycho","psycho","0","uniform","0","undefined","0","n","1","0","13","1","1","0","0","0","0","NA","13","0","13","13","0","13","1","13","13","Mon Dec  4 12:37:33 2023","A template containing a practice and an experimental phase","yes","언어학과심리실험_B조_기말과제용심리실험.osexp","E:\2023년도 1학기\언어학과심리실험","no","mono","no","18","no","black","no","no","768","psycho","10","10","0","E:\2023년도 1학기\언어학과심리실험\quickrun.csv","psycho","Lentiform Loewenfeld","3.3.14","no","새","natural","inclusive","0","None","NA","f","NA","g","None","n","0.01650000922381878","NA","8950.514500029385","NA","33913.79359993152","0.01650000922381878","1530.9846000745893","2","psycho","1024","2","48000","-16","experiment","999","odd","까치","natural","NA","96413.82449981757","66508.0152999144","66507.97149981372","NA","57556.51019979268","3082.61049981229","66507.53439986147","NA","95697.81289994717","3137.2660999186337","98051.6450998839","98051.78839992732","37052.38779983483","95908.31159986556","NA","96520.07379988208","95683.55640000664","Extended template","0","0.1817992888391018","11","yes","1024"
"0","0","0.016441607537368935","0.016441607537368935","white","yes","psycho","psycho","psycho","0","uniform","0","undefined","0","n","1","0","14","1","1","0","0","0","0","NA","14","0","14","14","0","14","1","14","14","Mon Dec  4 12:37:33 2023","A template containing a practice and an experimental phase","yes","언어학과심리실험_B조_기말과제용심리실험.osexp","E:\2023년도 1학기\언어학과심리실험","no","mono","no","18","no","black","no","no","768","psycho","11","11","0","E:\2023년도 1학기\언어학과심리실험\quickrun.csv","psycho","Lentiform Loewenfeld","3.3.14","no","불","natural","no-correlation","0","None","NA","f","NA","g","None","n","0.015500001609325409","NA","8950.514500029385","NA","33913.79359993152","0.015500001609325409","1498.8420999143273","2","psycho","1024","2","48000","-16","experiment","999","odd","바위","natural","NA","98851.08319995925","66508.0152999144","66507.97149981372","NA","57556.51019979268","3082.61049981229","66507.53439986147","NA","98133.82210000418","3137.2660999186337","100455.6989998091","100455.84119996056","37052.38779983483","98345.25329992175","NA","98956.2397999689","98126.86660001054","Extended template","0","0.1972992904484272","12","yes","1024"
"0","0","0.01635379157960415","0.01635379157960415","white","yes","psycho","psycho","psycho","0","uniform","0","undefined","0","n","1","0","15","1","1","0","0","0","0","NA","15","0","15","15","0","15","1","15","15","Mon Dec  4 12:37:33 2023","A template containing a practice and an experimental phase","yes","언어학과심리실험_B조_기말과제용심리실험.osexp","E:\2023년도 1학기\언어학과심리실험","no","mono","no","18","no","black","no","no","768","psycho","12","12","0","E:\2023년도 1학기\언어학과심리실험\quickrun.csv","psycho","Lentiform Loewenfeld","3.3.14","no","모래","natural","similar-environmental","0","None","NA","f","NA","g","None","n","0.015300000086426735","NA","8950.514500029385","NA","33913.79359993152","0.015300000086426735","3794.412499992177","2","psycho","1024","2","48000","-16","experiment","999","odd","자갈","natural","NA","101266.50379993953","66508.0152999144","66507.97149981372","NA","57556.51019979268","3082.61049981229","66507.53439986147","NA","100555.83239998668","3137.2660999186337","105167.54089994356","105167.68709989265","37052.38779983483","100762.10179994814","NA","101372.5903998129","100544.94960000739","Extended template","0","0.21259929053485394","13","yes","1024"
"0","0","0.016299957808639323","0.016299957808639323","white","yes","psycho","psycho","psycho","0","uniform","0","undefined","0","n","1","0","16","1","1","0","0","0","0","NA","16","0","16","16","0","16","1","16","16","Mon Dec  4 12:37:33 2023","A template containing a practice and an experimental phase","yes","언어학과심리실험_B조_기말과제용심리실험.osexp","E:\2023년도 1학기\언어학과심리실험","no","mono","no","18","no","black","no","no","768","psycho","13","13","0","E:\2023년도 1학기\언어학과심리실험\quickrun.csv","psycho","Lentiform Loewenfeld","3.3.14","no","전구","artifactual","similar-environmental","0","None","NA","f","NA","g","None","n","0.015600118786096573","NA","8950.514500029385","NA","33913.79359993152","0.015600118786096573","691.1170999519527","2","psycho","1024","2","48000","-16","experiment","999","odd","빛","natural","NA","105974.81749998406","66508.0152999144","66507.97149981372","NA","57556.51019979268","3082.61049981229","66507.53439986147","NA","105258.2685998641","3137.2660999186337","106771.59759984352","106771.74709993415","37052.38779983483","105469.86119984649","NA","106079.92609986104","105250.23459992371","Extended template","0","0.2281994093209505","14","yes","1024"
"0","0","0.016473295787970226","0.016473295787970226","white","yes","psycho","psycho","psycho","0","uniform","0","undefined","0","n","1","0","17","1","1","0","0","0","0","NA","17","0","17","17","0","17","1","17","17","Mon Dec  4 12:37:33 2023","A template containing a practice and an experimental phase","yes","언어학과심리실험_B조_기말과제용심리실험.osexp","E:\2023년도 1학기\언어학과심리실험","no","mono","no","18","no","black","no","no","768","psycho","14","14","0","E:\2023년도 1학기\언어학과심리실험\quickrun.csv","psycho","Lentiform Loewenfeld","3.3.14","no","호수","natural","no-correlation","0","None","NA","f","NA","g","None","n","0.018900027498602867","NA","8950.514500029385","NA","33913.79359993152","0.018900027498602867","709.9073999561369","2","psycho","1024","2","48000","-16","experiment","999","odd","소나무","natural","NA","107562.68169987015","66508.0152999144","66507.97149981372","NA","57556.51019979268","3082.61049981229","66507.53439986147","NA","106852.03740000725","3137.2660999186337","108379.60709980689","108379.77329990827","37052.38779983483","107058.26939991675","NA","107669.09529990517","106845.08749982342","Extended template","0","0.24709943681955338","15","yes","1024"
"0","0","0.016456222510896623","0.016456222510896623","white","yes","psycho","psycho","psycho","0","uniform","0","undefined","0","n","1","0","18","1","1","0","0","0","0","NA","18","0","18","18","0","18","1","18","18","Mon Dec  4 12:37:33 2023","A template containing a practice and an experimental phase","yes","언어학과심리실험_B조_기말과제용심리실험.osexp","E:\2023년도 1학기\언어학과심리실험","no","mono","no","18","no","black","no","no","768","psycho","15","15","0","E:\2023년도 1학기\언어학과심리실험\quickrun.csv","psycho","Lentiform Loewenfeld","3.3.14","no","숲","natural","inclusive","0","None","NA","f","NA","g","None","n","0.016200123354792595","NA","8950.514500029385","NA","33913.79359993152","0.016200123354792595","736.4372999873012","2","psycho","1024","2","48000","-16","experiment","999","odd","나무","natural","NA","109173.57899993658","66508.0152999144","66507.97149981372","NA","57556.51019979268","3082.61049981229","66507.53439986147","NA","108457.72179984488","3137.2660999186337","110015.67729981616","110015.8378998749","37052.38779983483","108665.35389982164","NA","109278.61299994402","108451.06449979357","Extended template","0","0.26329956017434597","16","yes","1024"
"0","0","0.016470562995356673","0.016470562995356673","white","yes","psycho","psycho","psycho","0","uniform","0","undefined","0","n","1","0","19","1","1","0","0","0","0","NA","19","0","19","19","0","19","1","19","19","Mon Dec  4 12:37:33 2023","A template containing a practice and an experimental phase","yes","언어학과심리실험_B조_기말과제용심리실험.osexp","E:\2023년도 1학기\언어학과심리실험","no","mono","no","18","no","black","no","no","768","psycho","16","16","0","E:\2023년도 1학기\언어학과심리실험\quickrun.csv","psycho","Lentiform Loewenfeld","3.3.14","no","구두","artifactual","same phoneme","0","None","NA","f","NA","g","None","n","0.016700010746717453","NA","8950.514500029385","NA","33913.79359993152","0.016700010746717453","1111.2077999860048","2","psycho","1024","2","48000","-16","experiment","999","odd","구름","natural","NA","110806.81889993139","66508.0152999144","66507.97149981372","NA","57556.51019979268","3082.61049981229","66507.53439986147","NA","110095.68469994701","3137.2660999186337","112023.68949982338","112023.8808998838","37052.38779983483","110302.07609990612","NA","110911.84179997072","110088.72779994272","Extended template","0","0.2799995709210634","17","yes","1024"
"0","0","0.016483310092654493","0.016483310092654493","white","yes","psycho","psycho","psycho","0","uniform","0","undefined","0","a","1","0","20","1","1","0","0","0","0","NA","20","0","20","20","0","20","1","20","20","Mon Dec  4 12:37:33 2023","A template containing a practice and an experimental phase","yes","언어학과심리실험_B조_기말과제용심리실험.osexp","E:\2023년도 1학기\언어학과심리실험","no","mono","no","18","no","black","no","no","768","psycho","17","17","0","E:\2023년도 1학기\언어학과심리실험\quickrun.csv","psycho","Lentiform Loewenfeld","3.3.14","no","옷","artifactual","inclusive","0","None","NA","f","NA","g","None","a","0.016700010746717453","NA","8950.514500029385","NA","33913.79359993152","0.016700010746717453","968.0897002108395","2","psycho","1024","2","48000","-16","experiment","999","odd","코트","artifactual","NA","112816.28399994224","66508.0152999144","66507.97149981372","NA","57556.51019979268","3082.61049981229","66507.53439986147","NA","112105.71979987435","3137.2660999186337","113891.72409987077","113891.8970997911","37052.38779983483","112312.00949987397","NA","112922.88819979876","112098.8711998798","Extended template","0","0.2966995816677809","18","yes","1024"
"0","0","0.016468393273259465","0.016468393273259465","white","yes","psycho","psycho","psycho","0","uniform","0","undefined","0","n","1","0","21","1","1","0","0","0","0","NA","21","0","21","21","0","21","1","21","21","Mon Dec  4 12:37:33 2023","A template containing a practice and an experimental phase","yes","언어학과심리실험_B조_기말과제용심리실험.osexp","E:\2023년도 1학기\언어학과심리실험","no","mono","no","18","no","black","no","no","768","psycho","18","18","0","E:\2023년도 1학기\언어학과심리실험\quickrun.csv","psycho","Lentiform Loewenfeld","3.3.14","no","박쥐","natural","similar-environmental","0","None","NA","f","NA","g","None","n","0.01619989052414894","NA","8950.514500029385","NA","33913.79359993152","0.01619989052414894","1367.2388999257237","2","psycho","1024","2","48000","-16","experiment","999","odd","동굴","natural","NA","114686.86419981532","66508.0152999144","66507.97149981372","NA","57556.51019979268","3082.61049981229","66507.53439986147","NA","113973.85159996338","3137.2660999186337","116159.67769990675","116159.85429985449","37052.38779983483","114179.89149992354","NA","114791.80589993484","113966.87070000917","Extended template","0","0.3128994721919298","19","yes","1024"
"0","0","0.016449973918497562","0.016449973918497562","white","yes","psycho","psycho","psycho","0","uniform","0","undefined","0","n","1","0","22","1","1","0","0","0","0","NA","22","0","22","22","0","22","1","22","22","Mon Dec  4 12:37:33 2023","A template containing a practice and an experimental phase","yes","언어학과심리실험_B조_기말과제용심리실험.osexp","E:\2023년도 1학기\언어학과심리실험","no","mono","no","18","no","black","no","no","768","psycho","19","19","0","E:\2023년도 1학기\언어학과심리실험\quickrun.csv","psycho","Lentiform Loewenfeld","3.3.14","no","가을","natural","similar-environmental","0","None","NA","f","NA","g","None","n","0.01610000617802143","NA","8950.514500029385","NA","33913.79359993152","0.01610000617802143","1294.3287999369204","2","psycho","1024","2","48000","-16","experiment","999","odd","낙엽","natural","NA","116963.29979994334","66508.0152999144","66507.97149981372","NA","57556.51019979268","3082.61049981229","66507.53439986147","NA","116244.75109996274","3137.2660999186337","118363.70479990728","118363.88499988243","37052.38779983483","116455.90309984982","NA","117068.64829990081","116235.42369995266","Extended template","0","0.32899947836995125","20","yes","1024"
"0","0","0.016428541303390547","0.016428541303390547","white","yes","psycho","psycho","psycho","0","uniform","0","undefined","0","a","1","0","23","1","1","0","0","0","0","NA","23","0","23","23","0","23","1","23","23","Mon Dec  4 12:37:33 2023","A template containing a practice and an experimental phase","yes","언어학과심리실험_B조_기말과제용심리실험.osexp","E:\2023년도 1학기\언어학과심리실험","no","mono","no","18","no","black","no","no","768","psycho","20","20","0","E:\2023년도 1학기\언어학과심리실험\quickrun.csv","psycho","Lentiform Loewenfeld","3.3.14","no","선설수","non-word","non-word","0","None","NA","f","NA","g","None","a","0.015999889001250267","NA","8950.514500029385","NA","33913.79359993152","0.015999889001250267","1036.684300052002","2","psycho","1024","2","48000","-16","experiment","999","odd","시계","artifactual","NA","119163.70859998278","66508.0152999144","66507.97149981372","NA","57556.51019979268","3082.61049981229","66507.53439986147","NA","118446.23179989867","3137.2660999186337","120307.75219993666","120307.94189986773","37052.38779983483","118657.75059978478","NA","119270.31229995191","118439.36419999227","Extended template","0","0.3449993673712015","21","yes","1024"
"0","0","0.01640905710783872","0.01640905710783872","white","yes","psycho","psycho","psycho","0","uniform","0","undefined","0","n","1","0","24","1","1","0","0","0","0","NA","24","0","24","24","0","24","1","24","24","Mon Dec  4 12:37:33 2023","A template containing a practice and an experimental phase","yes","언어학과심리실험_B조_기말과제용심리실험.osexp","E:\2023년도 1학기\언어학과심리실험","no","mono","no","18","no","black","no","no","768","psycho","21","21","0","E:\2023년도 1학기\언어학과심리실험\quickrun.csv","psycho","Lentiform Loewenfeld","3.3.14","no","의자","artifactual","no-correlation","0","None","NA","f","NA","g","None","n","0.015999889001250267","NA","8950.514500029385","NA","33913.79359993152","0.015999889001250267","5676.244999980554","2","psycho","1024","2","48000","-16","experiment","999","odd","행성","natural","NA","121105.77149991877","66508.0152999144","66507.97149981372","NA","57556.51019979268","3082.61049981229","66507.53439986147","NA","120393.94119987264","3137.2660999186337","126888.21060000919","126888.40159983374","37052.38779983483","120600.14759982005","NA","121210.76749986969","120385.98819985054","Extended template","0","0.3609992563724518","22","yes","1024"
"0","0","0.016391277313232422","0.016391277313232422","white","yes","psycho","psycho","psycho","0","uniform","0","undefined","0","a","1","0","25","1","1","0","0","0","0","NA","25","0","25","25","0","25","1","25","25","Mon Dec  4 12:37:33 2023","A template containing a practice and an experimental phase","yes","언어학과심리실험_B조_기말과제용심리실험.osexp","E:\2023년도 1학기\언어학과심리실험","no","mono","no","18","no","black","no","no","768","psycho","22","22","0","E:\2023년도 1학기\언어학과심리실험\quickrun.csv","psycho","Lentiform Loewenfeld","3.3.14","no","로켓","artifactual","same phoneme","0","None","NA","f","NA","g","None","a","0.01600012183189392","NA","8950.514500029385","NA","33913.79359993152","0.01600012183189392","960.293099982664","2","psycho","1024","2","48000","-16","experiment","999","odd","로봇","artifactual","NA","127694.74820001051","66508.0152999144","66507.97149981372","NA","57556.51019979268","3082.61049981229","66507.53439986147","NA","126986.25499987975","3137.2660999186337","128759.70459985547","128760.00639982522","37052.38779983483","127191.75829994492","NA","127798.71719982475","126971.2137999013","Extended template","0","0.3769993782043457","23","yes","1024"
"0","0","0.016358312374601763","0.016358312374601763","white","yes","psycho","psycho","psycho","0","uniform","0","undefined","0","a","1","0","26","1","1","0","0","0","0","NA","26","0","26","26","0","26","1","26","26","Mon Dec  4 12:37:33 2023","A template containing a practice and an experimental phase","yes","언어학과심리실험_B조_기말과제용심리실험.osexp","E:\2023년도 1학기\언어학과심리실험","no","mono","no","18","no","black","no","no","768","psycho","23","23","0","E:\2023년도 1학기\언어학과심리실험\quickrun.csv","psycho","Lentiform Loewenfeld","3.3.14","no","구름","natural","same phoneme","0","None","NA","f","NA","g","None","a","0.015600118786096573","NA","8950.514500029385","NA","33913.79359993152","0.015600118786096573","950.6320999935269","2","psycho","1024","2","48000","-16","experiment","999","odd","구슬","artifactual","NA","129575.3842999693","66508.0152999144","66507.97149981372","NA","57556.51019979268","3082.61049981229","66507.53439986147","NA","128864.0066999942","3137.2660999186337","130631.72649987973","130631.91929995082","37052.38779983483","129070.04059990868","NA","129680.42709981091","128855.71399983019","Extended template","0","0.3925994969904423","24","yes","1024"
"0","0","0.016539981588721275","0.016539981588721275","white","yes","psycho","psycho","psycho","0","uniform","0","undefined","0","a","1","0","27","1","1","0","0","0","0","NA","27","0","27","27","0","27","1","27","27","Mon Dec  4 12:37:33 2023","A template containing a practice and an experimental phase","yes","언어학과심리실험_B조_기말과제용심리실험.osexp","E:\2023년도 1학기\언어학과심리실험","no","mono","no","18","no","black","no","no","768","psycho","24","24","0","E:\2023년도 1학기\언어학과심리실험\quickrun.csv","psycho","Lentiform Loewenfeld","3.3.14","no","도미노","artifactual","same phoneme","0","None","NA","f","NA","g","None","a","0.020900042727589607","NA","8950.514500029385","NA","33913.79359993152","0.020900042727589607","710.1284000091255","2","psycho","1024","2","48000","-16","experiment","999","odd","도서","artifactual","NA","131430.52789987996","66508.0152999144","66507.97149981372","NA","57556.51019979268","3082.61049981229","66507.53439986147","NA","130714.94489978068","3137.2660999186337","132247.9202998802","132248.1327999849","37052.38779983483","130926.07469996437","NA","131536.8492999114","130707.99719984643","Extended template","0","0.4134995397180319","25","yes","1024"
"0","0","0.016507674725009844","0.016507674725009844","white","yes","psycho","psycho","psycho","0","uniform","0","undefined","0","a","1","0","28","1","1","0","0","0","0","NA","28","0","28","28","0","28","1","28","28","Mon Dec  4 12:37:33 2023","A template containing a practice and an experimental phase","yes","언어학과심리실험_B조_기말과제용심리실험.osexp","E:\2023년도 1학기\언어학과심리실험","no","mono","no","18","no","black","no","no","768","psycho","25","25","0","E:\2023년도 1학기\언어학과심리실험\quickrun.csv","psycho","Lentiform Loewenfeld","3.3.14","no","호수","natural","no-correlation","0","None","NA","f","NA","g","None","a","0.015700003132224083","NA","8950.514500029385","NA","33913.79359993152","0.015700003132224083","1058.6463999934494","2","psycho","1024","2","48000","-16","experiment","999","odd","대학교","artifactual","NA","133039.33249996044","66508.0152999144","66507.97149981372","NA","57556.51019979268","3082.61049981229","66507.53439986147","NA","132326.79610000923","3137.2660999186337","134203.85269983672","134204.0591998957","37052.38779983483","132534.19679985382","NA","133144.33939987794","132319.93409991264","Extended template","0","0.42919954285025597","26","yes","1024"
"0","0","0.016477760962314077","0.016477760962314077","white","yes","psycho","psycho","psycho","0","uniform","0","undefined","0","n","1","0","29","1","1","0","0","0","0","NA","29","0","29","29","0","29","1","29","29","Mon Dec  4 12:37:33 2023","A template containing a practice and an experimental phase","yes","언어학과심리실험_B조_기말과제용심리실험.osexp","E:\2023년도 1학기\언어학과심리실험","no","mono","no","18","no","black","no","no","768","psycho","26","26","0","E:\2023년도 1학기\언어학과심리실험\quickrun.csv","psycho","Lentiform Loewenfeld","3.3.14","no","상새고","non-word","non-word","0","None","NA","f","NA","g","None","n","0.015700003132224083","NA","8950.514500029385","NA","33913.79359993152","0.015700003132224083","1810.623100027442","2","psycho","1024","2","48000","-16","experiment","999","odd","나뭇잎","natural","NA","134999.40219987184","66508.0152999144","66507.97149981372","NA","57556.51019979268","3082.61049981229","66507.53439986147","NA","134287.00029989704","3137.2660999186337","136916.13699984737","136916.34789993986","37052.38779983483","134494.3490999285","NA","135104.33639981784","134279.94499984197","Extended template","0","0.44489954598248005","27","yes","1024"
"0","0","0.016417844952749356","0.016417844952749356","white","yes","psycho","psycho","psycho","0","uniform","0","undefined","0","n","1","0","30","1","1","0","0","0","0","NA","30","0","30","30","0","30","1","30","30","Mon Dec  4 12:37:33 2023","A template containing a practice and an experimental phase","yes","언어학과심리실험_B조_기말과제용심리실험.osexp","E:\2023년도 1학기\언어학과심리실험","no","mono","no","18","no","black","no","no","768","psycho","27","27","0","E:\2023년도 1학기\언어학과심리실험\quickrun.csv","psycho","Lentiform Loewenfeld","3.3.14","no","산","natural","similar-environmental","0","None","NA","f","NA","g","None","n","0.014800112694501877","NA","8950.514500029385","NA","33913.79359993152","0.014800112694501877","1175.6464000791311","2","psycho","1024","2","48000","-16","experiment","999","odd","계곡","natural","NA","137718.4490999207","66508.0152999144","66507.97149981372","NA","57556.51019979268","3082.61049981229","66507.53439986147","NA","137007.86199979484","3137.2660999186337","138999.6234998107","138999.83809981495","37052.38779983483","137214.13619979285","NA","137823.32979980856","136994.9459999334","Extended template","0","0.4596996586769819","28","yes","1024"
"0","0","0.01639654410296473","0.01639654410296473","white","yes","psycho","psycho","psycho","0","uniform","0","undefined","0","n","1","0","31","1","1","0","0","0","0","NA","31","0","31","31","0","31","1","31","31","Mon Dec  4 12:37:33 2023","A template containing a practice and an experimental phase","yes","언어학과심리실험_B조_기말과제용심리실험.osexp","E:\2023년도 1학기\언어학과심리실험","no","mono","no","18","no","black","no","no","768","psycho","28","28","0","E:\2023년도 1학기\언어학과심리실험\quickrun.csv","psycho","Lentiform Loewenfeld","3.3.14","no","불","natural","no-correlation","0","None","NA","f","NA","g","None","n","0.015800120308995247","NA","8950.514500029385","NA","33913.79359993152","0.015800120308995247","1101.0200001765043","2","psycho","1024","2","48000","-16","experiment","999","odd","물고기","natural","NA","139794.97759998776","66508.0152999144","66507.97149981372","NA","57556.51019979268","3082.61049981229","66507.53439986147","NA","139082.57589978166","3137.2660999186337","141004.2080997955","141004.42369980738","37052.38779983483","139290.15049990267","NA","139901.9878997933","139074.20179992914","Extended template","0","0.4754997789859772","29","yes","1024"
"0","0","0.016429989288250606","0.016429989288250606","white","yes","psycho","psycho","psycho","0","uniform","0","undefined","0","n","1","0","32","1","1","0","0","0","0","NA","32","0","32","32","0","32","1","32","32","Mon Dec  4 12:37:33 2023","A template containing a practice and an experimental phase","yes","언어학과심리실험_B조_기말과제용심리실험.osexp","E:\2023년도 1학기\언어학과심리실험","no","mono","no","18","no","black","no","no","768","psycho","29","29","0","E:\2023년도 1학기\언어학과심리실험\quickrun.csv","psycho","Lentiform Loewenfeld","3.3.14","no","물고기","natural","inclusive","0","None","NA","f","NA","g","None","n","0.017399899661540985","NA","8950.514500029385","NA","33913.79359993152","0.017399899661540985","843.3191000949591","2","psycho","1024","2","48000","-16","experiment","999","odd","연어","natural","NA","141806.71129981056","66508.0152999144","66507.97149981372","NA","57556.51019979268","3082.61049981229","66507.53439986147","NA","141089.83019995503","3137.2660999186337","142755.82639989443","142756.05480000377","37052.38779983483","141300.96009979025","NA","141911.69879981317","141082.72919990122","Extended template","0","0.49289967864751816","30","yes","1024"
"0","0","0.016432247995849577","0.016432247995849577","white","yes","psycho","psycho","psycho","0","uniform","0","undefined","0","a","1","0","33","1","1","0","0","0","0","NA","33","0","33","33","0","33","1","33","33","Mon Dec  4 12:37:33 2023","A template containing a practice and an experimental phase","yes","언어학과심리실험_B조_기말과제용심리실험.osexp","E:\2023년도 1학기\언어학과심리실험","no","mono","no","18","no","black","no","no","768","psycho","30","30","0","E:\2023년도 1학기\언어학과심리실험\quickrun.csv","psycho","Lentiform Loewenfeld","3.3.14","no","교통","artifactual","inclusive","0","None","NA","f","NA","g","None","a","0.01650000922381878","NA","8950.514500029385","NA","33913.79359993152","0.01650000922381878","1019.5371001027524","2","psycho","1024","2","48000","-16","experiment","999","odd","자동차","artifactual","NA","143552.85719991662","66508.0152999144","66507.97149981372","NA","57556.51019979268","3082.61049981229","66507.53439986147","NA","142840.70619987324","3137.2660999186337","144679.78599993512","144680.0149998162","37052.38779983483","143048.30009979196","NA","143659.43359979428","142833.56169983745","Extended template","0","0.5093996878713369","31","yes","1024"
"0","0","0.0164374869200401","0.0164374869200401","white","yes","psycho","psycho","psycho","0","uniform","0","undefined","0","a","1","0","34","1","1","0","0","0","0","NA","34","0","34","34","0","34","1","34","34","Mon Dec  4 12:37:33 2023","A template containing a practice and an experimental phase","yes","언어학과심리실험_B조_기말과제용심리실험.osexp","E:\2023년도 1학기\언어학과심리실험","no","mono","no","18","no","black","no","no","768","psycho","31","31","0","E:\2023년도 1학기\언어학과심리실험\quickrun.csv","psycho","Lentiform Loewenfeld","3.3.14","no","화분","artifactual","no-correlation","0","None","NA","f","NA","g","None","a","0.01659989356994629","NA","8950.514500029385","NA","33913.79359993152","0.01659989356994629","3137.519499985501","2","psycho","1024","2","48000","-16","experiment","999","odd","신발","artifactual","NA","145484.15129981004","66508.0152999144","66507.97149981372","NA","57556.51019979268","3082.61049981229","66507.53439986147","NA","144763.3439998608","3137.2660999186337","148727.7124999091","148727.9605998192","37052.38779983483","144979.03249994852","NA","145589.4941999577","144756.23519998044","Extended template","0","0.5259995814412832","32","yes","1024"
"0","0","0.01642726023088802","0.01642726023088802","white","yes","psycho","psycho","psycho","0","uniform","0","undefined","0","a","1","0","35","1","1","0","0","0","0","NA","35","0","35","35","0","35","1","35","35","Mon Dec  4 12:37:33 2023","A template containing a practice and an experimental phase","yes","언어학과심리실험_B조_기말과제용심리실험.osexp","E:\2023년도 1학기\언어학과심리실험","no","mono","no","18","no","black","no","no","768","psycho","32","32","0","E:\2023년도 1학기\언어학과심리실험\quickrun.csv","psycho","Lentiform Loewenfeld","3.3.14","no","영화","artifactual","similar-environmental","0","None","NA","f","NA","g","None","a","0.01610000617802143","NA","8950.514500029385","NA","33913.79359993152","0.01610000617802143","1301.4566998463124","2","psycho","1024","2","48000","-16","experiment","999","odd","드라마","artifactual","NA","149532.46979997493","66508.0152999144","66507.97149981372","NA","57556.51019979268","3082.61049981229","66507.53439986147","NA","148811.79969990626","3137.2660999186337","150939.74429997616","150939.98019979335","37052.38779983483","149027.5884999428","NA","149637.56439997815","148803.54269989766","Extended template","0","0.5420995876193047","33","yes","1024"
"0","0","0.01641175271395375","0.01641175271395375","white","yes","psycho","psycho","psycho","0","uniform","0","undefined","0","x","0","0","36","1","1","0","0","0","0","NA","36","0","36","36","0","36","1","36","36","Mon Dec  4 12:37:33 2023","A template containing a practice and an experimental phase","yes","언어학과심리실험_B조_기말과제용심리실험.osexp","E:\2023년도 1학기\언어학과심리실험","no","mono","no","18","no","black","no","no","768","psycho","33","33","0","E:\2023년도 1학기\언어학과심리실험\quickrun.csv","psycho","Lentiform Loewenfeld","3.3.14","no","절벽","natural","non-word","0","None","NA","f","NA","g","None","a","0.015900004655122757","NA","8950.514500029385","NA","33913.79359993152","0.015900004655122757","11957.218599971384","2","psycho","1024","2","48000","-16","experiment","999","odd","물로프","non-word","NA","151736.65929981507","66508.0152999144","66507.97149981372","NA","57556.51019979268","3082.61049981229","66507.53439986147","NA","151024.58119997755","3137.2660999186337","163799.70229999162","163799.94279984385","37052.38779983483","151231.317400001","NA","151841.7882998474","151015.29929996468","Extended template","0","0.5579995922744274","34","yes","1024"
"0","0","0.01637712786240237","0.01637712786240237","white","yes","psycho","psycho","psycho","0","uniform","0","undefined","0","n","1","0","37","1","1","0","0","0","0","NA","37","0","37","37","0","37","1","37","37","Mon Dec  4 12:37:33 2023","A template containing a practice and an experimental phase","yes","언어학과심리실험_B조_기말과제용심리실험.osexp","E:\2023년도 1학기\언어학과심리실험","no","mono","no","18","no","black","no","no","768","psycho","34","34","0","E:\2023년도 1학기\언어학과심리실험\quickrun.csv","psycho","Lentiform Loewenfeld","3.3.14","no","얼음","natural","no-correlation","0","None","NA","f","NA","g","None","n","0.015199882909655571","NA","8950.514500029385","NA","33913.79359993152","0.015199882909655571","2852.8393001761287","2","psycho","1024","2","48000","-16","experiment","999","odd","돌","natural","NA","164605.0161998719","66508.0152999144","66507.97149981372","NA","57556.51019979268","3082.61049981229","66507.53439986147","NA","163893.3787997812","3137.2660999186337","167563.70569998398","167563.9506999869","37052.38779983483","164100.31989985146","NA","164710.1901997812","163881.31589978002","Extended template","0","0.573199475184083","35","yes","1024"
"0","0","0.01634165204854475","0.01634165204854475","white","yes","psycho","psycho","psycho","0","uniform","0","undefined","0","a","1","0","38","1","1","0","0","0","0","NA","38","0","38","38","0","38","1","38","38","Mon Dec  4 12:37:33 2023","A template containing a practice and an experimental phase","yes","언어학과심리실험_B조_기말과제용심리실험.osexp","E:\2023년도 1학기\언어학과심리실험","no","mono","no","18","no","black","no","no","768","psycho","35","35","0","E:\2023년도 1학기\언어학과심리실험\quickrun.csv","psycho","Lentiform Loewenfeld","3.3.14","no","향수","artifactual","no-correlation","0","None","NA","f","NA","g","None","a","0.015099998563528061","NA","8950.514500029385","NA","33913.79359993152","0.015099998563528061","1597.8079000487924","2","psycho","1024","2","48000","-16","experiment","999","odd","선풍기","artifactual","NA","168364.16669981554","66508.0152999144","66507.97149981372","NA","57556.51019979268","3082.61049981229","66507.53439986147","NA","167653.46599998884","3137.2660999186337","170067.66359996982","170067.90909986012","37052.38779983483","167859.57729979418","NA","168469.1460998729","167639.6254999563","Extended template","0","0.588299473747611","36","yes","1024"
"0","0","0.01636755375846012","0.01636755375846012","white","yes","psycho","psycho","psycho","0","uniform","0","undefined","0","a","1","0","39","1","1","0","0","0","0","NA","39","0","39","39","0","39","1","39","39","Mon Dec  4 12:37:33 2023","A template containing a practice and an experimental phase","yes","언어학과심리실험_B조_기말과제용심리실험.osexp","E:\2023년도 1학기\언어학과심리실험","no","mono","no","18","no","black","no","no","768","psycho","36","36","0","E:\2023년도 1학기\언어학과심리실험\quickrun.csv","psycho","Lentiform Loewenfeld","3.3.14","no","마우스","artifactual","no-correlation","0","None","NA","f","NA","g","None","a","0.017300015315413475","NA","8950.514500029385","NA","33913.79359993152","0.017300015315413475","1558.6777001153678","2","psycho","1024","2","48000","-16","experiment","999","odd","모자","artifactual","NA","170870.13079994358","66508.0152999144","66507.97149981372","NA","57556.51019979268","3082.61049981229","66507.53439986147","NA","170157.22319995984","3137.2660999186337","172535.814399831","172536.07889986597","37052.38779983483","170363.60239982605","NA","170976.32849984802","170144.3143999204","Extended template","0","0.6055994890630245","37","yes","1024"
"0","0","0.016344723438746052","0.016344723438746052","white","yes","psycho","psycho","psycho","0","uniform","0","undefined","0","a","0","0","40","1","1","0","0","0","0","NA","40","0","40","40","0","40","1","40","40","Mon Dec  4 12:37:33 2023","A template containing a practice and an experimental phase","yes","언어학과심리실험_B조_기말과제용심리실험.osexp","E:\2023년도 1학기\언어학과심리실험","no","mono","no","18","no","black","no","no","768","psycho","37","37","0","E:\2023년도 1학기\언어학과심리실험\quickrun.csv","psycho","Lentiform Loewenfeld","3.3.14","no","바다","natural","similar-environmental","0","None","NA","f","NA","g","None","n","0.015500001609325409","NA","8950.514500029385","NA","33913.79359993152","0.015500001609325409","2535.088500007987","2","psycho","1024","2","48000","-16","experiment","999","odd","배","artifactual","NA","173335.29419987462","66508.0152999144","66507.97149981372","NA","57556.51019979268","3082.61049981229","66507.53439986147","NA","172619.5472998079","3137.2660999186337","175987.73459997028","175987.9888999276","37052.38779983483","172830.38349985145","NA","173451.9169998821","172611.02809989825","Extended template","0","0.6210994906723499","38","yes","1024"
"0","0","0.01633844863718901","0.01633844863718901","white","yes","psycho","psycho","psycho","0","uniform","0","undefined","0","n","1","0","41","1","1","0","0","0","0","NA","41","0","41","41","0","41","1","41","41","Mon Dec  4 12:37:33 2023","A template containing a practice and an experimental phase","yes","언어학과심리실험_B조_기말과제용심리실험.osexp","E:\2023년도 1학기\언어학과심리실험","no","mono","no","18","no","black","no","no","768","psycho","38","38","0","E:\2023년도 1학기\언어학과심리실험\quickrun.csv","psycho","Lentiform Loewenfeld","3.3.14","no","밤하늘","natural","no-correlation","0","None","NA","f","NA","g","None","n","0.01610000617802143","NA","8950.514500029385","NA","33913.79359993152","0.01610000617802143","964.4769001752138","2","psycho","1024","2","48000","-16","experiment","999","odd","바위","natural","NA","176785.71099997498","66508.0152999144","66507.97149981372","NA","57556.51019979268","3082.61049981229","66507.53439986147","NA","176071.5478998609","3137.2660999186337","177855.72679992765","177855.98709993064","37052.38779983483","176280.3239999339","NA","176890.4890997801","176063.62159992568","Extended template","0","0.6371994968503714","39","yes","1024"
"0","0","0.016567489365115762","0.016567489365115762","white","yes","psycho","psycho","psycho","0","uniform","0","undefined","0","a","1","0","42","1","1","0","0","0","0","NA","42","0","42","42","0","42","1","42","42","Mon Dec  4 12:37:33 2023","A template containing a practice and an experimental phase","yes","언어학과심리실험_B조_기말과제용심리실험.osexp","E:\2023년도 1학기\언어학과심리실험","no","mono","no","18","no","black","no","no","768","psycho","39","39","0","E:\2023년도 1학기\언어학과심리실험\quickrun.csv","psycho","Lentiform Loewenfeld","3.3.14","no","산","natural","similar-environmental","0","None","NA","f","NA","g","None","a","0.02550007775425911","NA","8950.514500029385","NA","33913.79359993152","0.02550007775425911","1557.041099993512","2","psycho","1024","2","48000","-16","experiment","999","odd","오두막","artifactual","NA","178649.40279978327","66508.0152999144","66507.97149981372","NA","57556.51019979268","3082.61049981229","66507.53439986147","NA","177938.14489990473","3137.2660999186337","180316.2798997946","180316.76489999518","37052.38779983483","178144.38339998014","NA","178754.51509980485","177930.9686999768","Extended template","0","0.6626995746046305","40","yes","1024"
"0","0","0.01654144739959298","0.01654144739959298","white","yes","psycho","psycho","psycho","0","uniform","0","undefined","0","n","1","0","43","1","1","0","0","0","0","NA","43","0","43","43","0","43","1","43","43","Mon Dec  4 12:37:33 2023","A template containing a practice and an experimental phase","yes","언어학과심리실험_B조_기말과제용심리실험.osexp","E:\2023년도 1학기\언어학과심리실험","no","mono","no","18","no","black","no","no","768","psycho","40","40","0","E:\2023년도 1학기\언어학과심리실험\quickrun.csv","psycho","Lentiform Loewenfeld","3.3.14","no","다리","artifactual","similar-environmental","0","None","NA","f","NA","g","None","n","0.015499768778681755","NA","8950.514500029385","NA","33913.79359993152","0.015499768778681755","1652.6565998792648","2","psycho","1024","2","48000","-16","experiment","999","odd","강","natural","NA","181117.62229981832","66508.0152999144","66507.97149981372","NA","57556.51019979268","3082.61049981229","66507.53439986147","NA","180405.46019980684","3137.2660999186337","182875.73520001024","182876.00419996306","37052.38779983483","180612.01459984295","NA","181222.33969997615","180393.9236998558","Extended template","0","0.6781993433833122","41","yes","1024"
"0","0","0.01652617495329607","0.01652617495329607","white","yes","psycho","psycho","psycho","0","uniform","0","undefined","0","n","1","0","44","1","1","0","0","0","0","NA","44","0","44","44","0","44","1","44","44","Mon Dec  4 12:37:33 2023","A template containing a practice and an experimental phase","yes","언어학과심리실험_B조_기말과제용심리실험.osexp","E:\2023년도 1학기\언어학과심리실험","no","mono","no","18","no","black","no","no","768","psycho","41","41","0","E:\2023년도 1학기\언어학과심리실험\quickrun.csv","psycho","Lentiform Loewenfeld","3.3.14","no","등산로","artifactual","similar-environmental","0","None","NA","f","NA","g","None","n","0.015900004655122757","NA","8950.514500029385","NA","33913.79359993152","0.015900004655122757","950.5806998349726","2","psycho","1024","2","48000","-16","experiment","999","odd","산","natural","NA","183671.4293998666","66508.0152999144","66507.97149981372","NA","57556.51019979268","3082.61049981229","66507.53439986147","NA","182959.41259991378","3137.2660999186337","184727.76929987594","184728.04589988664","37052.38779983483","183165.85019999184","NA","183776.37410000898","182950.0362998806","Extended template","0","0.694099348038435","42","yes","1024"
"0","0","0.01652789475439593","0.01652789475439593","white","yes","psycho","psycho","psycho","0","uniform","0","undefined","0","a","1","0","45","1","1","0","0","0","0","NA","45","0","45","45","0","45","1","45","45","Mon Dec  4 12:37:33 2023","A template containing a practice and an experimental phase","yes","언어학과심리실험_B조_기말과제용심리실험.osexp","E:\2023년도 1학기\언어학과심리실험","no","mono","no","18","no","black","no","no","768","psycho","42","42","0","E:\2023년도 1학기\언어학과심리실험\quickrun.csv","psycho","Lentiform Loewenfeld","3.3.14","no","과일","natural","no-correlation","0","None","NA","f","NA","g","None","a","0.016600126400589943","NA","8950.514500029385","NA","33913.79359993152","0.016600126400589943","1076.5324998646975","2","psycho","1024","2","48000","-16","experiment","999","odd","가방","artifactual","NA","185522.08979986608","66508.0152999144","66507.97149981372","NA","57556.51019979268","3082.61049981229","66507.53439986147","NA","184811.20799994096","3137.2660999186337","186715.8273998648","186716.1108998116","37052.38779983483","185017.66589982435","NA","185638.45339999534","184803.0701999087","Extended template","0","0.7106994744390249","43","yes","1024"
"0","0","0.01650680893693458","0.01650680893693458","white","yes","psycho","psycho","psycho","0","uniform","0","undefined","0","n","1","0","46","1","1","0","0","0","0","NA","46","0","46","46","0","46","1","46","46","Mon Dec  4 12:37:33 2023","A template containing a practice and an experimental phase","yes","언어학과심리실험_B조_기말과제용심리실험.osexp","E:\2023년도 1학기\언어학과심리실험","no","mono","no","18","no","black","no","no","768","psycho","43","43","0","E:\2023년도 1학기\언어학과심리실험\quickrun.csv","psycho","Lentiform Loewenfeld","3.3.14","no","패딩","artifactual","similar-environmental","0","None","NA","f","NA","g","None","n","0.015600118786096573","NA","8950.514500029385","NA","33913.79359993152","0.015600118786096573","1089.7260000929236","2","psycho","1024","2","48000","-16","experiment","999","odd","겨울","natural","NA","187516.2481998559","66508.0152999144","66507.97149981372","NA","57556.51019979268","3082.61049981229","66507.53439986147","NA","186802.8657999821","3137.2660999186337","188711.7456998676","188712.0284999255","37052.38779983483","187009.08579980023","NA","187621.16469978355","186791.3469998166","Extended template","0","0.7262995932251215","44","yes","1024"
"0","0","0.016488879919052124","0.016488879919052124","white","yes","psycho","psycho","psycho","0","uniform","0","undefined","0","a","1","0","47","1","1","0","0","0","0","NA","47","0","47","47","0","47","1","47","47","Mon Dec  4 12:37:33 2023","A template containing a practice and an experimental phase","yes","언어학과심리실험_B조_기말과제용심리실험.osexp","E:\2023년도 1학기\언어학과심리실험","no","mono","no","18","no","black","no","no","768","psycho","44","44","0","E:\2023년도 1학기\언어학과심리실험\quickrun.csv","psycho","Lentiform Loewenfeld","3.3.14","no","성냥","artifactual","same phoneme","0","None","NA","f","NA","g","None","a","0.015700003132224083","NA","8950.514500029385","NA","33913.79359993152","0.015700003132224083","1040.0266000069678","2","psycho","1024","2","48000","-16","experiment","999","odd","성적표","artifactual","NA","189510.1003998425","66508.0152999144","66507.97149981372","NA","57556.51019979268","3082.61049981229","66507.53439986147","NA","188796.80969985202","3137.2660999186337","190655.75229981914","190656.0380998999","37052.38779983483","189003.06309992447","NA","189614.96309982613","188789.85539986752","Extended template","0","0.7419995963573456","45","yes","1024"
"0","0","0.01645868684610595","0.01645868684610595","white","yes","psycho","psycho","psycho","0","uniform","0","undefined","0","a","1","0","48","1","1","0","0","0","0","NA","48","0","48","48","0","48","1","48","48","Mon Dec  4 12:37:33 2023","A template containing a practice and an experimental phase","yes","언어학과심리실험_B조_기말과제용심리실험.osexp","E:\2023년도 1학기\언어학과심리실험","no","mono","no","18","no","black","no","no","768","psycho","45","45","0","E:\2023년도 1학기\언어학과심리실험\quickrun.csv","psycho","Lentiform Loewenfeld","3.3.14","no","기계","artifactual","inclusive","0","None","NA","f","NA","g","None","a","0.015099998563528061","NA","8950.514500029385","NA","33913.79359993152","0.015099998563528061","3152.2343999240547","2","psycho","1024","2","48000","-16","experiment","999","odd","컴퓨터","artifactual","NA","191457.05789979547","66508.0152999144","66507.97149981372","NA","57556.51019979268","3082.61049981229","66507.53439986147","NA","190740.11389981024","3137.2660999186337","194715.69689991884","194715.99129983224","37052.38779983483","190951.49030000903","NA","191562.74159997702","190732.9467998352","Extended template","0","0.7570995949208736","46","yes","1024"
"0","0","0.01644041448673035","0.01644041448673035","white","yes","psycho","psycho","psycho","0","uniform","0","undefined","0","a","1","0","49","1","1","0","0","0","0","NA","49","0","49","49","0","49","1","49","49","Mon Dec  4 12:37:33 2023","A template containing a practice and an experimental phase","yes","언어학과심리실험_B조_기말과제용심리실험.osexp","E:\2023년도 1학기\언어학과심리실험","no","mono","no","18","no","black","no","no","768","psycho","46","46","0","E:\2023년도 1학기\언어학과심리실험\quickrun.csv","psycho","Lentiform Loewenfeld","3.3.14","no","악어","natural","same phoneme","0","None","NA","f","NA","g","None","a","0.015599885955452919","NA","8950.514500029385","NA","33913.79359993152","0.015599885955452919","1527.2554999683052","2","psycho","1024","2","48000","-16","experiment","999","odd","악기","artifactual","NA","195518.7831998337","66508.0152999144","66507.97149981372","NA","57556.51019979268","3082.61049981229","66507.53439986147","NA","194805.30259991065","3137.2660999186337","197151.80959994905","197152.1097999066","37052.38779983483","195012.01199996285","NA","195623.71969991364","194791.5842998773","Extended template","0","0.7726994808763266","47","yes","1024"
"0","0","0.01641874162790676","0.01641874162790676","white","yes","psycho","psycho","psycho","0","uniform","0","undefined","0","n","1","0","50","1","1","0","0","0","0","NA","50","0","50","50","0","50","1","50","50","Mon Dec  4 12:37:33 2023","A template containing a practice and an experimental phase","yes","언어학과심리실험_B조_기말과제용심리실험.osexp","E:\2023년도 1학기\언어학과심리실험","no","mono","no","18","no","black","no","no","768","psycho","47","47","0","E:\2023년도 1학기\언어학과심리실험\quickrun.csv","psycho","Lentiform Loewenfeld","3.3.14","no","바다","natural","same phoneme","0","None","NA","f","NA","g","None","n","0.015400117263197899","NA","8950.514500029385","NA","33913.79359993152","0.015400117263197899","748.3602999709547","2","psycho","1024","2","48000","-16","experiment","999","odd","바퀴벌레","natural","NA","197953.3805998508","66508.0152999144","66507.97149981372","NA","57556.51019979268","3082.61049981229","66507.53439986147","NA","197242.50509985723","3137.2660999186337","198807.78349982575","198808.08859993704","37052.38779983483","197449.05999978073","NA","198058.62329993397","197227.97699994408","Extended template","0","0.7880995981395245","48","yes","1024"
"0","0","0.01638979004810051","0.01638979004810051","white","yes","psycho","psycho","psycho","0","uniform","0","undefined","0","n","1","0","51","1","1","0","0","0","0","NA","51","0","51","51","0","51","1","51","51","Mon Dec  4 12:37:33 2023","A template containing a practice and an experimental phase","yes","언어학과심리실험_B조_기말과제용심리실험.osexp","E:\2023년도 1학기\언어학과심리실험","no","mono","no","18","no","black","no","no","768","psycho","48","48","0","E:\2023년도 1학기\언어학과심리실험\quickrun.csv","psycho","Lentiform Loewenfeld","3.3.14","no","동굴","natural","similar-environmental","0","None","NA","f","NA","g","None","n","0.01500011421740055","NA","8950.514500029385","NA","33913.79359993152","0.01500011421740055","713.9926999807358","2","psycho","1024","2","48000","-16","experiment","999","odd","박쥐","natural","NA","199599.83359999023","66508.0152999144","66507.97149981372","NA","57556.51019979268","3082.61049981229","66507.53439986147","NA","198887.53879978321","3137.2660999186337","200419.70959980972","200420.01069989055","37052.38779983483","199093.85969978757","NA","199704.8886998091","198880.52209978923","Extended template","0","0.803099712356925","49","yes","1024"
"0","0","0.01638399437069893","0.01638399437069893","white","yes","psycho","psycho","psycho","0","uniform","0","undefined","0","n","0","0","52","1","1","0","0","0","0","NA","52","0","52","52","0","52","1","52","52","Mon Dec  4 12:37:33 2023","A template containing a practice and an experimental phase","yes","언어학과심리실험_B조_기말과제용심리실험.osexp","E:\2023년도 1학기\언어학과심리실험","no","mono","no","18","no","black","no","no","768","psycho","49","49","0","E:\2023년도 1학기\언어학과심리실험\quickrun.csv","psycho","Lentiform Loewenfeld","3.3.14","no","호수","natural","same phoneme","0","None","NA","f","NA","g","None","a","0.01610000617802143","NA","8950.514500029385","NA","33913.79359993152","0.01610000617802143","1913.8356000185013","2","psycho","1024","2","48000","-16","experiment","999","odd","호랑이","natural","NA","201212.09389995784","66508.0152999144","66507.97149981372","NA","57556.51019979268","3082.61049981229","66507.53439986147","NA","200500.19019981846","3137.2660999186337","203231.78709996864","203232.0924999658","37052.38779983483","200706.46579982713","NA","201317.14989989996","200492.7868999075","Extended template","0","0.8191997185349464","50","yes","1024"
"0","0","0.016392149286819438","0.016392149286819438","white","yes","psycho","psycho","psycho","0","uniform","0","undefined","0","n","1","0","53","1","1","0","0","0","0","NA","53","0","53","53","0","53","1","53","53","Mon Dec  4 12:37:33 2023","A template containing a practice and an experimental phase","yes","언어학과심리실험_B조_기말과제용심리실험.osexp","E:\2023년도 1학기\언어학과심리실험","no","mono","no","18","no","black","no","no","768","psycho","50","50","0","E:\2023년도 1학기\언어학과심리실험\quickrun.csv","psycho","Lentiform Loewenfeld","3.3.14","no","달력","artifactual","same phoneme","0","None","NA","f","NA","g","None","n","0.016799895092844963","NA","8950.514500029385","NA","33913.79359993152","0.016799895092844963","2394.993399968371","2","psycho","1024","2","48000","-16","experiment","999","odd","달","natural","NA","204035.21919995546","66508.0152999144","66507.97149981372","NA","57556.51019979268","3082.61049981229","66507.53439986147","NA","203316.4770998992","3137.2660999186337","206535.7323999051","206536.0493999906","37052.38779983483","203527.90969982743","NA","204139.92529991083","203306.3812998589","Extended template","0","0.8359996136277914","51","yes","1024"
"0","0","0.016388456480434306","0.016388456480434306","white","yes","psycho","psycho","psycho","0","uniform","0","undefined","0","n","1","0","54","1","1","0","0","0","0","NA","54","0","54","54","0","54","1","54","54","Mon Dec  4 12:37:33 2023","A template containing a practice and an experimental phase","yes","언어학과심리실험_B조_기말과제용심리실험.osexp","E:\2023년도 1학기\언어학과심리실험","no","mono","no","18","no","black","no","no","768","psycho","51","51","0","E:\2023년도 1학기\언어학과심리실험\quickrun.csv","psycho","Lentiform Loewenfeld","3.3.14","no","스노우보드","artifactual","no-correlation","0","None","NA","f","NA","g","None","n","0.016200123354792595","NA","8950.514500029385","NA","33913.79359993152","0.016200123354792595","1106.3113999553025","2","psycho","1024","2","48000","-16","experiment","999","odd","꽃","natural","NA","207343.8118000049","66508.0152999144","66507.97149981372","NA","57556.51019979268","3082.61049981229","66507.53439986147","NA","206631.97399978526","3137.2660999186337","208555.76229980215","208556.08289991505","37052.38779983483","206838.1722997874","NA","207448.6538998317","206624.26269985735","Extended template","0","0.852199736982584","52","yes","1024"
"0","0","0.0164056557037358","0.0164056557037358","white","yes","psycho","psycho","psycho","0","uniform","0","undefined","0","a","1","0","55","1","1","0","0","0","0","NA","55","0","55","55","0","55","1","55","55","Mon Dec  4 12:37:33 2023","A template containing a practice and an experimental phase","yes","언어학과심리실험_B조_기말과제용심리실험.osexp","E:\2023년도 1학기\언어학과심리실험","no","mono","no","18","no","black","no","no","768","psycho","52","52","0","E:\2023년도 1학기\언어학과심리실험\quickrun.csv","psycho","Lentiform Loewenfeld","3.3.14","no","플피","non-word","non-word","0","None","NA","f","NA","g","None","a","0.017300015315413475","NA","8950.514500029385","NA","33913.79359993152","0.017300015315413475","2342.167700175196","2","psycho","1024","2","48000","-16","experiment","999","odd","책상","artifactual","NA","209412.13299985975","66508.0152999144","66507.97149981372","NA","57556.51019979268","3082.61049981229","66507.53439986147","NA","208690.37919980474","3137.2660999186337","211859.80849992484","211860.1311999373","37052.38779983483","208905.14949988574","NA","209516.808899818","208673.78929979168","Extended template","0","0.8694997522979975","53","yes","1024"
"0","0","0.016405553281031274","0.016405553281031274","white","yes","psycho","psycho","psycho","0","uniform","0","undefined","0","n","1","0","56","1","1","0","0","0","0","NA","56","0","56","56","0","56","1","56","56","Mon Dec  4 12:37:33 2023","A template containing a practice and an experimental phase","yes","언어학과심리실험_B조_기말과제용심리실험.osexp","E:\2023년도 1학기\언어학과심리실험","no","mono","no","18","no","black","no","no","768","psycho","53","53","0","E:\2023년도 1학기\언어학과심리실험\quickrun.csv","psycho","Lentiform Loewenfeld","3.3.14","no","수영","artifactual","similar-environmental","0","None","NA","f","NA","g","None","n","0.01640012487769127","NA","8950.514500029385","NA","33913.79359993152","0.01640012487769127","1039.4617000129074","2","psycho","1024","2","48000","-16","experiment","999","odd","바다","natural","NA","212678.5096998792","66508.0152999144","66507.97149981372","NA","57556.51019979268","3082.61049981229","66507.53439986147","NA","211958.0833998043","3137.2660999186337","213823.87939980254","213824.21349990182","37052.38779983483","212165.0445999112","NA","212783.427399816","211945.12679986656","Extended template","0","0.8858998771756887","54","yes","1024"
"0","0","0.016394541175528007","0.016394541175528007","white","yes","psycho","psycho","psycho","0","uniform","0","undefined","0","n","1","0","57","1","1","0","0","0","0","NA","57","0","57","57","0","57","1","57","57","Mon Dec  4 12:37:33 2023","A template containing a practice and an experimental phase","yes","언어학과심리실험_B조_기말과제용심리실험.osexp","E:\2023년도 1학기\언어학과심리실험","no","mono","no","18","no","black","no","no","768","psycho","54","54","0","E:\2023년도 1학기\언어학과심리실험\quickrun.csv","psycho","Lentiform Loewenfeld","3.3.14","no","곡물","natural","inclusive","0","None","NA","f","NA","g","None","n","0.015799887478351593","NA","8950.514500029385","NA","33913.79359993152","0.015799887478351593","7717.591700144112","2","psycho","1024","2","48000","-16","experiment","999","odd","밀","natural","NA","214620.5627999734","66508.0152999144","66507.97149981372","NA","57556.51019979268","3082.61049981229","66507.53439986147","NA","213909.11079989746","3137.2660999186337","222443.7520999927","222444.0842999611","37052.38779983483","214116.02670000866","NA","214725.3585997969","213902.1242999006","Extended template","0","0.9016997646540403","55","yes","1024"
"0","0","0.01637321214989892","0.01637321214989892","white","yes","psycho","psycho","psycho","0","uniform","0","undefined","0","a","1","0","58","1","1","0","0","0","0","NA","58","0","58","58","0","58","1","58","58","Mon Dec  4 12:37:33 2023","A template containing a practice and an experimental phase","yes","언어학과심리실험_B조_기말과제용심리실험.osexp","E:\2023년도 1학기\언어학과심리실험","no","mono","no","18","no","black","no","no","768","psycho","55","55","0","E:\2023년도 1학기\언어학과심리실험\quickrun.csv","psycho","Lentiform Loewenfeld","3.3.14","no","피자","artifactual","similar-environmental","0","None","NA","f","NA","g","None","a","0.015200115740299225","NA","8950.514500029385","NA","33913.79359993152","0.015200115740299225","947.2596999257803","2","psycho","1024","2","48000","-16","experiment","999","odd","파스타","artifactual","NA","223242.74089979008","66508.0152999144","66507.97149981372","NA","57556.51019979268","3082.61049981229","66507.53439986147","NA","222530.86399985477","3137.2660999186337","224295.74369988404","224296.08179978095","37052.38779983483","222737.27389983833","NA","223347.68639993854","222519.91149992682","Extended template","0","0.9168998803943396","56","yes","1024"
"0","0","0.016363153822327916","0.016363153822327916","white","yes","psycho","psycho","psycho","0","uniform","0","undefined","0","n","1","0","59","1","1","0","0","0","0","NA","59","0","59","59","0","59","1","59","59","Mon Dec  4 12:37:33 2023","A template containing a practice and an experimental phase","yes","언어학과심리실험_B조_기말과제용심리실험.osexp","E:\2023년도 1학기\언어학과심리실험","no","mono","no","18","no","black","no","no","768","psycho","56","56","0","E:\2023년도 1학기\언어학과심리실험\quickrun.csv","psycho","Lentiform Loewenfeld","3.3.14","no","물고기","natural","no-correlation","0","None","NA","f","NA","g","None","n","0.015799887478351593","NA","8950.514500029385","NA","33913.79359993152","0.015799887478351593","2056.4688998274505","2","psycho","1024","2","48000","-16","experiment","999","odd","밤하늘","natural","NA","225089.27679993212","66508.0152999144","66507.97149981372","NA","57556.51019979268","3082.61049981229","66507.53439986147","NA","224377.85149994306","3137.2660999186337","227251.76439993083","227252.10589985363","37052.38779983483","224583.97919987328","NA","225194.4679999724","224370.89819996618","Extended template","0","0.9326997678726912","57","yes","1024"
"0","0","0.01635516849185886","0.01635516849185886","white","yes","psycho","psycho","psycho","0","uniform","0","undefined","0","n","1","0","60","1","1","0","0","0","0","NA","60","0","60","60","0","60","1","60","60","Mon Dec  4 12:37:33 2023","A template containing a practice and an experimental phase","yes","언어학과심리실험_B조_기말과제용심리실험.osexp","E:\2023년도 1학기\언어학과심리실험","no","mono","no","18","no","black","no","no","768","psycho","57","57","0","E:\2023년도 1학기\언어학과심리실험\quickrun.csv","psycho","Lentiform Loewenfeld","3.3.14","no","우산","artifactual","similar-environmental","0","None","NA","f","NA","g","None","n","0.015900004655122757","NA","8950.514500029385","NA","33913.79359993152","0.015900004655122757","801.8339001573622","2","psycho","1024","2","48000","-16","experiment","999","odd","비","natural","NA","228047.80289996415","66508.0152999144","66507.97149981372","NA","57556.51019979268","3082.61049981229","66507.53439986147","NA","227333.2156999968","3137.2660999186337","228955.73379984125","228956.07429998927","37052.38779983483","227543.13050000928","NA","228153.0489998404","227326.19889988564","Extended template","0","0.9485997725278139","58","yes","1024"
"0","0","0.01634406399423793","0.01634406399423793","white","yes","psycho","psycho","psycho","0","uniform","0","undefined","0","a","1","0","61","1","1","0","0","0","0","NA","61","0","61","61","0","61","1","61","61","Mon Dec  4 12:37:33 2023","A template containing a practice and an experimental phase","yes","언어학과심리실험_B조_기말과제용심리실험.osexp","E:\2023년도 1학기\언어학과심리실험","no","mono","no","18","no","black","no","no","768","psycho","58","58","0","E:\2023년도 1학기\언어학과심리실험\quickrun.csv","psycho","Lentiform Loewenfeld","3.3.14","no","바람","natural","no-correlation","0","None","NA","f","NA","g","None","a","0.015700003132224083","NA","8950.514500029385","NA","33913.79359993152","0.015700003132224083","645.7383998204023","2","psycho","1024","2","48000","-16","experiment","999","odd","버스","artifactual","NA","229747.13459983468","66508.0152999144","66507.97149981372","NA","57556.51019979268","3082.61049981229","66507.53439986147","NA","229035.67279991694","3137.2660999186337","230499.9256997835","230500.27560000308","37052.38779983483","229242.90620000102","NA","229853.1357999891","229028.6427999381","Extended template","0","0.964299775660038","59","yes","1024"
"0","0","0.01636166125535965","0.01636166125535965","white","yes","psycho","psycho","psycho","0","uniform","0","undefined","0","a","1","0","62","1","1","0","0","0","0","NA","62","0","62","62","0","62","1","62","62","Mon Dec  4 12:37:33 2023","A template containing a practice and an experimental phase","yes","언어학과심리실험_B조_기말과제용심리실험.osexp","E:\2023년도 1학기\언어학과심리실험","no","mono","no","18","no","black","no","no","768","psycho","59","59","0","E:\2023년도 1학기\언어학과심리실험\quickrun.csv","psycho","Lentiform Loewenfeld","3.3.14","no","전기","natural","similar-environmental","0","None","NA","f","NA","g","None","a","0.017399899661540985","NA","8950.514500029385","NA","33913.79359993152","0.017399899661540985","1043.2157998438925","2","psycho","1024","2","48000","-16","experiment","999","odd","전선","artifactual","NA","231294.14039989933","66508.0152999144","66507.97149981372","NA","57556.51019979268","3082.61049981229","66507.53439986147","NA","230583.03029998206","3137.2660999186337","232443.8614998944","232444.22769988887","37052.38779983483","230789.21749978326","NA","231399.71749996766","230576.09349978156","Extended template","0","0.981699675321579","60","yes","1024"
"0","0","0.016355730562669334","0.016355730562669334","white","yes","psycho","psycho","psycho","0","uniform","0","undefined","0","x","1","0","63","1","1","0","0","0","0","NA","63","0","63","63","0","63","1","63","63","Mon Dec  4 12:37:33 2023","A template containing a practice and an experimental phase","yes","언어학과심리실험_B조_기말과제용심리실험.osexp","E:\2023년도 1학기\언어학과심리실험","no","mono","no","18","no","black","no","no","768","psycho","60","60","0","E:\2023년도 1학기\언어학과심리실험\quickrun.csv","psycho","Lentiform Loewenfeld","3.3.14","no","폭풍","natural","non-word","0","None","NA","f","NA","g","None","x","0.015999889001250267","NA","8950.514500029385","NA","33913.79359993152","0.015999889001250267","16102.173899998888","2","psycho","1024","2","48000","-16","experiment","999","odd","섬강","non-word","NA","233243.6704998836","66508.0152999144","66507.97149981372","NA","57556.51019979268","3082.61049981229","66507.53439986147","NA","232526.5114000067","3137.2660999186337","249451.75669994205","249452.29349983856","37052.38779983483","232737.91089979932","NA","233348.69869984686","232519.67079984024","Extended template","0","0.9976995643228292","61","yes","1024"
"0","0","0.016380638454950625","0.016380638454950625","white","yes","psycho","psycho","psycho","0","uniform","0","undefined","0","n","1","0","64","1","1","0","0","0","0","NA","64","0","64","64","0","64","1","64","64","Mon Dec  4 12:37:33 2023","A template containing a practice and an experimental phase","yes","언어학과심리실험_B조_기말과제용심리실험.osexp","E:\2023년도 1학기\언어학과심리실험","no","mono","no","18","no","black","no","no","768","psycho","61","61","0","E:\2023년도 1학기\언어학과심리실험\quickrun.csv","psycho","Lentiform Loewenfeld","3.3.14","no","장슈","non-word","non-word","0","None","NA","f","NA","g","None","n","0.017900019884109497","NA","8950.514500029385","NA","33913.79359993152","0.017900019884109497","3454.216100042686","2","psycho","1024","2","48000","-16","experiment","999","odd","다람쥐","natural","NA","250268.97299988195","66508.0152999144","66507.97149981372","NA","57556.51019979268","3082.61049981229","66507.53439986147","NA","249555.224099895","3137.2660999186337","253827.85359979607","253828.26139987446","37052.38779983483","249766.0590999294","NA","250372.63729982078","249536.50799999014","Extended template","0","1.0155995842069387","62","yes","1024"
"0","0","0.0164492004033592","0.0164492004033592","white","yes","psycho","psycho","psycho","0","uniform","0","undefined","0","n","1","0","65","1","1","0","0","0","0","NA","65","0","65","65","0","65","1","65","65","Mon Dec  4 12:37:33 2023","A template containing a practice and an experimental phase","yes","언어학과심리실험_B조_기말과제용심리실험.osexp","E:\2023년도 1학기\언어학과심리실험","no","mono","no","18","no","black","no","no","768","psycho","62","62","0","E:\2023년도 1학기\언어학과심리실험\quickrun.csv","psycho","Lentiform Loewenfeld","3.3.14","no","과일","natural","inclusive","0","None","NA","f","NA","g","None","n","0.020700041204690933","NA","8950.514500029385","NA","33913.79359993152","0.020700041204690933","1641.2682998925447","2","psycho","1024","2","48000","-16","experiment","999","odd","사과","natural","NA","254645.199699793","66508.0152999144","66507.97149981372","NA","57556.51019979268","3082.61049981229","66507.53439986147","NA","253925.43119983748","3137.2660999186337","256392.09699979983","256392.4900998827","37052.38779983483","254140.95779997297","NA","254749.63949993253","253915.91099998914","Extended template","0","1.0362996254116297","63","yes","1024"
"0","0","0.016453119314974174","0.016453119314974174","white","yes","psycho","psycho","psycho","0","uniform","0","undefined","0","n","0","0","66","1","1","0","0","0","0","NA","66","0","66","66","0","66","1","66","66","Mon Dec  4 12:37:33 2023","A template containing a practice and an experimental phase","yes","언어학과심리실험_B조_기말과제용심리실험.osexp","E:\2023년도 1학기\언어학과심리실험","no","mono","no","18","no","black","no","no","768","psycho","63","63","0","E:\2023년도 1학기\언어학과심리실험\quickrun.csv","psycho","Lentiform Loewenfeld","3.3.14","no","호랑이","natural","same phoneme","0","None","NA","f","NA","g","None","a","0.016700010746717453","NA","8950.514500029385","NA","33913.79359993152","0.016700010746717453","681.9352998863906","2","psycho","1024","2","48000","-16","experiment","999","odd","호수","natural","NA","257216.355699813","66508.0152999144","66507.97149981372","NA","57556.51019979268","3082.61049981229","66507.53439986147","NA","256496.4173999615","3137.2660999186337","258004.12319996394","258004.49409987777","37052.38779983483","256711.12929983065","NA","257320.9760999307","256483.28589997254","Extended template","0","1.0529996361583471","64","yes","1024"
"0","0","0.01680768596438261","0.01680768596438261","white","yes","psycho","psycho","psycho","0","uniform","0","undefined","0","a","1","0","67","1","1","0","0","0","0","NA","67","0","67","67","0","67","1","67","67","Mon Dec  4 12:37:33 2023","A template containing a practice and an experimental phase","yes","언어학과심리실험_B조_기말과제용심리실험.osexp","E:\2023년도 1학기\언어학과심리실험","no","mono","no","18","no","black","no","no","768","psycho","64","64","0","E:\2023년도 1학기\언어학과심리실험\quickrun.csv","psycho","Lentiform Loewenfeld","3.3.14","no","구름","natural","same phoneme","0","None","NA","f","NA","g","None","a","0.039499951526522636","NA","8950.514500029385","NA","33913.79359993152","0.039499951526522636","8437.142299953848","2","psycho","1024","2","48000","-16","experiment","999","odd","구두","artifactual","NA","258811.21809990145","66508.0152999144","66507.97149981372","NA","57556.51019979268","3082.61049981229","66507.53439986147","NA","258099.46880000643","3137.2660999186337","267356.0552999843","267356.4910998102","37052.38779983483","258306.4428998623","NA","258917.8175998386","258082.0495998487","Extended template","0","1.0924995876848698","65","yes","1024"
"0","0","0.016789389491984337","0.016789389491984337","white","yes","psycho","psycho","psycho","0","uniform","0","undefined","0","x","1","0","68","1","1","0","0","0","0","NA","68","0","68","68","0","68","1","68","68","Mon Dec  4 12:37:33 2023","A template containing a practice and an experimental phase","yes","언어학과심리실험_B조_기말과제용심리실험.osexp","E:\2023년도 1학기\언어학과심리실험","no","mono","no","18","no","black","no","no","768","psycho","65","65","0","E:\2023년도 1학기\언어학과심리실험\quickrun.csv","psycho","Lentiform Loewenfeld","3.3.14","no","사자","natural","non-word","0","None","NA","f","NA","g","None","x","0.015600118786096573","NA","8950.514500029385","NA","33913.79359993152","0.015600118786096573","1832.674500066787","2","psycho","1024","2","48000","-16","experiment","999","odd","러스바이","non-word","NA","268155.4726997856","66508.0152999144","66507.97149981372","NA","57556.51019979268","3082.61049981229","66507.53439986147","NA","267442.1841998119","3137.2660999186337","270095.7614998333","270096.13549988717","37052.38779983483","267650.2084999811","NA","268262.22589984536","267434.46779996157","Extended template","0","1.1080997064709663","66","yes","1024"
"0","0","0.016807460351221597","0.016807460351221597","white","yes","psycho","psycho","psycho","0","uniform","0","undefined","0","n","0","0","69","1","1","0","0","0","0","NA","69","0","69","69","0","69","1","69","69","Mon Dec  4 12:37:33 2023","A template containing a practice and an experimental phase","yes","언어학과심리실험_B조_기말과제용심리실험.osexp","E:\2023년도 1학기\언어학과심리실험","no","mono","no","18","no","black","no","no","768","psycho","66","66","0","E:\2023년도 1학기\언어학과심리실험\quickrun.csv","psycho","Lentiform Loewenfeld","3.3.14","no","달","artifactual","same phoneme","0","None","NA","f","NA","g","None","a","0.01800013706088066","NA","8950.514500029385","NA","33913.79359993152","0.01800013706088066","2762.6602998934686","2","psycho","1024","2","48000","-16","experiment","999","odd","달력","natural","NA","270903.11279986054","66508.0152999144","66507.97149981372","NA","57556.51019979268","3082.61049981229","66507.53439986147","NA","270179.6367999632","3137.2660999186337","273771.8677998055","273772.2526998259","37052.38779983483","270396.13539981656","NA","271008.1976999063","270171.2563999463","Extended template","0","1.126099843531847","67","yes","1024"
"0","0","0.016780878307626527","0.016780878307626527","white","yes","psycho","psycho","psycho","0","uniform","0","undefined","0","x","0","0","70","1","1","0","0","0","0","NA","70","0","70","70","0","70","1","70","70","Mon Dec  4 12:37:33 2023","A template containing a practice and an experimental phase","yes","언어학과심리실험_B조_기말과제용심리실험.osexp","E:\2023년도 1학기\언어학과심리실험","no","mono","no","18","no","black","no","no","768","psycho","67","67","0","E:\2023년도 1학기\언어학과심리실험\quickrun.csv","psycho","Lentiform Loewenfeld","3.3.14","no","시계","artifactual","non-word","0","None","NA","f","NA","g","None","a","0.014999881386756897","NA","8950.514500029385","NA","33913.79359993152","0.014999881386756897","3105.680499924347","2","psycho","1024","2","48000","-16","experiment","999","odd","책솜","non-word","NA","274567.44669983163","66508.0152999144","66507.97149981372","NA","57556.51019979268","3082.61049981229","66507.53439986147","NA","273856.5490997862","3137.2660999186337","277779.78260000236","277780.17009980977","37052.38779983483","274062.66619986854","NA","274673.15789987333","273847.8435999714","Extended template","0","1.141099724918604","68","yes","1024"
"0","0","0.016778255340413772","0.016778255340413772","white","yes","psycho","psycho","psycho","0","uniform","0","undefined","0","a","1","0","71","1","1","0","0","0","0","NA","71","0","71","71","0","71","1","71","71","Mon Dec  4 12:37:33 2023","A template containing a practice and an experimental phase","yes","언어학과심리실험_B조_기말과제용심리실험.osexp","E:\2023년도 1학기\언어학과심리실험","no","mono","no","18","no","black","no","no","768","psycho","68","68","0","E:\2023년도 1학기\언어학과심리실험\quickrun.csv","psycho","Lentiform Loewenfeld","3.3.14","no","로봇","artifactual","same phoneme","0","None","NA","f","NA","g","None","a","0.01659989356994629","NA","8950.514500029385","NA","33913.79359993152","0.01659989356994629","1852.3689999710768","2","psycho","1024","2","48000","-16","experiment","999","odd","로켓","artifactual","NA","278577.630299842","66508.0152999144","66507.97149981372","NA","57556.51019979268","3082.61049981229","66507.53439986147","NA","277866.0852999892","3137.2660999186337","280535.9171999153","280536.3077998627","37052.38779983483","278072.294899961","NA","278682.52349994145","277855.65719986334","Extended template","0","1.1576996184885502","69","yes","1024"
"0","0","0.016757137408213958","0.016757137408213958","white","yes","psycho","psycho","psycho","0","uniform","0","undefined","0","a","1","0","72","1","1","0","0","0","0","NA","72","0","72","72","0","72","1","72","72","Mon Dec  4 12:37:33 2023","A template containing a practice and an experimental phase","yes","언어학과심리실험_B조_기말과제용심리실험.osexp","E:\2023년도 1학기\언어학과심리실험","no","mono","no","18","no","black","no","no","768","psycho","69","69","0","E:\2023년도 1학기\언어학과심리실험\quickrun.csv","psycho","Lentiform Loewenfeld","3.3.14","no","소나무","natural","same phoneme","0","None","NA","f","NA","g","None","a","0.015300000086426735","NA","8950.514500029385","NA","33913.79359993152","0.015300000086426735","917.6147999241948","2","psycho","1024","2","48000","-16","experiment","999","odd","소방서","artifactual","NA","281335.55979980156","66508.0152999144","66507.97149981372","NA","57556.51019979268","3082.61049981229","66507.53439986147","NA","280619.2707999144","3137.2660999186337","282360.28189980425","282360.67779990844","37052.38779983483","280830.6334000081","NA","281441.27319986","280612.11809981614","Extended template","0","1.172999618574977","70","yes","1024"
"0","0","0.01674928886055107","0.01674928886055107","white","yes","psycho","psycho","psycho","0","uniform","0","undefined","0","a","1","0","73","1","1","0","0","0","0","NA","73","0","73","73","0","73","1","73","73","Mon Dec  4 12:37:33 2023","A template containing a practice and an experimental phase","yes","언어학과심리실험_B조_기말과제용심리실험.osexp","E:\2023년도 1학기\언어학과심리실험","no","mono","no","18","no","black","no","no","768","psycho","70","70","0","E:\2023년도 1학기\언어학과심리실험\quickrun.csv","psycho","Lentiform Loewenfeld","3.3.14","no","학적","artifactual","same phoneme","0","None","NA","f","NA","g","None","a","0.01619989052414894","NA","8950.514500029385","NA","33913.79359993152","0.01619989052414894","2496.317199897021","2","psycho","1024","2","48000","-16","experiment","999","odd","학술","artifactual","NA","283165.4652999714","66508.0152999144","66507.97149981372","NA","57556.51019979268","3082.61049981229","66507.53439986147","NA","282448.7633998506","3137.2660999186337","285767.7762999665","285768.1901999749","37052.38779983483","282659.96899991296","NA","283270.58049989864","282441.78739981726","Extended template","0","1.1891995090991259","71","yes","1024"
"0","0","0.016752769523817632","0.016752769523817632","white","yes","psycho","psycho","psycho","0","uniform","0","undefined","0","a","1","0","74","1","1","0","0","0","0","NA","74","0","74","74","0","74","1","74","74","Mon Dec  4 12:37:33 2023","A template containing a practice and an experimental phase","yes","언어학과심리실험_B조_기말과제용심리실험.osexp","E:\2023년도 1학기\언어학과심리실험","no","mono","no","18","no","black","no","no","768","psycho","71","71","0","E:\2023년도 1학기\언어학과심리실험\quickrun.csv","psycho","Lentiform Loewenfeld","3.3.14","no","키보드","artifactual","similar-environmental","0","None","NA","f","NA","g","None","a","0.016999896615743637","NA","8950.514500029385","NA","33913.79359993152","0.016999896615743637","3828.8434999994934","2","psycho","1024","2","48000","-16","experiment","999","odd","컴퓨터","artifactual","NA","286568.76589986496","66508.0152999144","66507.97149981372","NA","57556.51019979268","3082.61049981229","66507.53439986147","NA","285851.85829992406","3137.2660999186337","290503.79280000925","290504.1945998091","37052.38779983483","286058.9952999726","NA","286674.07039995305","285843.5467998497","Extended template","0","1.2061994057148695","72","yes","1024"
"0","0","0.016731497104445547","0.016731497104445547","white","yes","psycho","psycho","psycho","0","uniform","0","undefined","0","n","1","0","75","1","1","0","0","0","0","NA","75","0","75","75","0","75","1","75","75","Mon Dec  4 12:37:33 2023","A template containing a practice and an experimental phase","yes","언어학과심리실험_B조_기말과제용심리실험.osexp","E:\2023년도 1학기\언어학과심리실험","no","mono","no","18","no","black","no","no","768","psycho","72","72","0","E:\2023년도 1학기\언어학과심리실험\quickrun.csv","psycho","Lentiform Loewenfeld","3.3.14","no","소방서","artifactual","same phoneme","0","None","NA","f","NA","g","None","n","0.015199882909655571","NA","8950.514500029385","NA","33913.79359993152","0.015199882909655571","999.2876998148859","2","psycho","1024","2","48000","-16","experiment","999","odd","소나무","natural","NA","291301.7860997934","66508.0152999144","66507.97149981372","NA","57556.51019979268","3082.61049981229","66507.53439986147","NA","290586.34019992314","3137.2660999186337","292419.2675999366","292419.6813998278","37052.38779983483","290797.33460000716","NA","291415.5439999886","290579.3785999995","Extended template","0","1.221399288624525","73","yes","1024"
"0","0","0.016717557996712828","0.016717557996712828","white","yes","psycho","psycho","psycho","0","uniform","0","undefined","0","a","1","0","76","1","1","0","0","0","0","NA","76","0","76","76","0","76","1","76","76","Mon Dec  4 12:37:33 2023","A template containing a practice and an experimental phase","yes","언어학과심리실험_B조_기말과제용심리실험.osexp","E:\2023년도 1학기\언어학과심리실험","no","mono","no","18","no","black","no","no","768","psycho","73","73","0","E:\2023년도 1학기\언어학과심리실험\quickrun.csv","psycho","Lentiform Loewenfeld","3.3.14","no","컴퓨터","artifactual","similar-environmental","0","None","NA","f","NA","g","None","a","0.015700003132224083","NA","8950.514500029385","NA","33913.79359993152","0.015700003132224083","916.1151999142021","2","psycho","1024","2","48000","-16","experiment","999","odd","키보드","artifactual","NA","293216.25109994784","66508.0152999144","66507.97149981372","NA","57556.51019979268","3082.61049981229","66507.53439986147","NA","292503.3374999184","3137.2660999186337","294239.78529986925","294240.2070998214","37052.38779983483","292709.64709995314","NA","293322.75910000317","292496.4012999553","Extended template","0","1.2370992917567492","74","yes","1024"
"0","0","0.0167239923030138","0.0167239923030138","white","yes","psycho","psycho","psycho","0","uniform","0","undefined","0","a","1","0","77","1","1","0","0","0","0","NA","77","0","77","77","0","77","1","77","77","Mon Dec  4 12:37:33 2023","A template containing a practice and an experimental phase","yes","언어학과심리실험_B조_기말과제용심리실험.osexp","E:\2023년도 1학기\언어학과심리실험","no","mono","no","18","no","black","no","no","768","psycho","74","74","0","E:\2023년도 1학기\언어학과심리실험\quickrun.csv","psycho","Lentiform Loewenfeld","3.3.14","no","호수","natural","no-correlation","0","None","NA","f","NA","g","None","a","0.017200130969285965","NA","8950.514500029385","NA","33913.79359993152","0.017200130969285965","794.4130999967456","2","psycho","1024","2","48000","-16","experiment","999","odd","화장실","artifactual","NA","295039.34609983116","66508.0152999144","66507.97149981372","NA","57556.51019979268","3082.61049981229","66507.53439986147","NA","294322.2414997872","3137.2660999186337","295939.77739987895","295940.2038999833","37052.38779983483","294534.8117998801","NA","295144.4524999242","294315.37579977885","Extended template","0","1.2542994227260351","75","yes","1024"
"0","0","0.01672104515723492","0.01672104515723492","white","yes","psycho","psycho","psycho","0","uniform","0","undefined","0","a","1","0","78","1","1","0","0","0","0","NA","78","0","78","78","0","78","1","78","78","Mon Dec  4 12:37:33 2023","A template containing a practice and an experimental phase","yes","언어학과심리실험_B조_기말과제용심리실험.osexp","E:\2023년도 1학기\언어학과심리실험","no","mono","no","18","no","black","no","no","768","psycho","75","75","0","E:\2023년도 1학기\언어학과심리실험\quickrun.csv","psycho","Lentiform Loewenfeld","3.3.14","no","꽃","natural","no-correlation","0","None","NA","f","NA","g","None","a","0.01650000922381878","NA","8950.514500029385","NA","33913.79359993152","0.01650000922381878","1345.5952999647707","2","psycho","1024","2","48000","-16","experiment","999","odd","풍차","artifactual","NA","296732.3961998336","66508.0152999144","66507.97149981372","NA","57556.51019979268","3082.61049981229","66507.53439986147","NA","296021.3815998286","3137.2660999186337","298183.8119998574","298184.23859984614","37052.38779983483","296227.50129993074","NA","296837.30449993163","296014.3720000051","Extended template","0","1.270799431949854","76","yes","1024"
"0","0","0.016712979715946433","0.016712979715946433","white","yes","psycho","psycho","psycho","0","uniform","0","undefined","0","n","1","0","79","1","1","0","0","0","0","NA","79","0","79","79","0","79","1","79","79","Mon Dec  4 12:37:33 2023","A template containing a practice and an experimental phase","yes","언어학과심리실험_B조_기말과제용심리실험.osexp","E:\2023년도 1학기\언어학과심리실험","no","mono","no","18","no","black","no","no","768","psycho","76","76","0","E:\2023년도 1학기\언어학과심리실험\quickrun.csv","psycho","Lentiform Loewenfeld","3.3.14","no","대학교","artifactual","no-correlation","0","None","NA","f","NA","g","None","n","0.01610000617802143","NA","8950.514500029385","NA","33913.79359993152","0.01610000617802143","1243.2020001579076","2","psycho","1024","2","48000","-16","experiment","999","odd","계곡","natural","NA","298986.78669985384","66508.0152999144","66507.97149981372","NA","57556.51019979268","3082.61049981229","66507.53439986147","NA","298271.53029991314","3137.2660999186337","300335.82899998873","300336.2590998877","37052.38779983483","298482.13109979406","NA","299091.68769977987","298259.47699998505","Extended template","0","1.2868994381278753","77","yes","1024"
"0","0","0.016694864592491053","0.016694864592491053","white","yes","psycho","psycho","psycho","0","uniform","0","undefined","0","a","1","0","80","1","1","0","0","0","0","NA","80","0","80","80","0","80","1","80","80","Mon Dec  4 12:37:33 2023","A template containing a practice and an experimental phase","yes","언어학과심리실험_B조_기말과제용심리실험.osexp","E:\2023년도 1학기\언어학과심리실험","no","mono","no","18","no","black","no","no","768","psycho","77","77","0","E:\2023년도 1학기\언어학과심리실험\quickrun.csv","psycho","Lentiform Loewenfeld","3.3.14","no","벌레","natural","same phoneme","0","None","NA","f","NA","g","None","a","0.015300000086426735","NA","8950.514500029385","NA","33913.79359993152","0.015300000086426735","843.604999827221","2","psycho","1024","2","48000","-16","experiment","999","odd","발레","artifactual","NA","301130.30759990215","66508.0152999144","66507.97149981372","NA","57556.51019979268","3082.61049981229","66507.53439986147","NA","300419.108199887","3137.2660999186337","302079.88499989733","302080.32089984044","37052.38779983483","300625.5554999225","NA","301235.2766999975","300412.16639988124","Extended template","0","1.302199438214302","78","yes","1024"
"0","0","0.016687334739143335","0.016687334739143335","white","yes","psycho","psycho","psycho","0","uniform","0","undefined","0","a","1","0","81","1","1","0","0","0","0","NA","81","0","81","81","0","81","1","81","81","Mon Dec  4 12:37:33 2023","A template containing a practice and an experimental phase","yes","언어학과심리실험_B조_기말과제용심리실험.osexp","E:\2023년도 1학기\언어학과심리실험","no","mono","no","18","no","black","no","no","768","psycho","78","78","0","E:\2023년도 1학기\언어학과심리실험\quickrun.csv","psycho","Lentiform Loewenfeld","3.3.14","no","안음풍","non-word","non-word","0","None","NA","f","NA","g","None","a","0.01610000617802143","NA","8950.514500029385","NA","33913.79359993152","0.01610000617802143","582.7214999590069","2","psycho","1024","2","48000","-16","experiment","999","odd","의자","artifactual","NA","302875.23109978065","66508.0152999144","66507.97149981372","NA","57556.51019979268","3082.61049981229","66507.53439986147","NA","302164.4909000024","3137.2660999186337","303564.3345999997","303564.7741998546","37052.38779983483","302371.0762998089","NA","302980.16559984535","302156.2863998115","Extended template","0","1.3182994443923235","79","yes","1024"
"0","0","0.016677493113093078","0.016677493113093078","white","yes","psycho","psycho","psycho","0","uniform","0","undefined","0","n","1","0","82","1","1","0","0","0","0","NA","82","0","82","82","0","82","1","82","82","Mon Dec  4 12:37:33 2023","A template containing a practice and an experimental phase","yes","언어학과심리실험_B조_기말과제용심리실험.osexp","E:\2023년도 1학기\언어학과심리실험","no","mono","no","18","no","black","no","no","768","psycho","79","79","0","E:\2023년도 1학기\언어학과심리실험\quickrun.csv","psycho","Lentiform Loewenfeld","3.3.14","no","항구","artifactual","similar-environmental","0","None","NA","f","NA","g","None","n","0.015900004655122757","NA","8950.514500029385","NA","33913.79359993152","0.015900004655122757","826.838199980557","2","psycho","1024","2","48000","-16","experiment","999","odd","바다","natural","NA","304362.7632998396","66508.0152999144","66507.97149981372","NA","57556.51019979268","3082.61049981229","66507.53439986147","NA","303652.3143998347","3137.2660999186337","305295.8120999392","305296.25229979865","37052.38779983483","303858.6038998328","NA","304468.04539998993","303643.6000999529","Extended template","0","1.3341994490474463","80","yes","1024"
"0","0","0.016807400288037313","0.016807400288037313","white","yes","psycho","psycho","psycho","0","uniform","0","undefined","0","n","1","0","83","1","1","0","0","0","0","NA","83","0","83","83","0","83","1","83","83","Mon Dec  4 12:37:33 2023","A template containing a practice and an experimental phase","yes","언어학과심리실험_B조_기말과제용심리실험.osexp","E:\2023년도 1학기\언어학과심리실험","no","mono","no","18","no","black","no","no","768","psycho","80","80","0","E:\2023년도 1학기\언어학과심리실험\quickrun.csv","psycho","Lentiform Loewenfeld","3.3.14","no","태양계","natural","inclusive","0","None","NA","f","NA","g","None","n","0.02719997428357601","NA","8950.514500029385","NA","33913.79359993152","0.02719997428357601","629.5062000863254","2","psycho","1024","2","48000","-16","experiment","999","odd","목성","natural","NA","306091.2223998457","66508.0152999144","66507.97149981372","NA","57556.51019979268","3082.61049981229","66507.53439986147","NA","305378.55089991353","3137.2660999186337","306828.44049995765","306828.9812998846","37052.38779983483","305586.24669979326","NA","306197.3720998503","305371.6351999901","Extended template","0","1.3613994233310223","81","yes","1024"
