"acc","accuracy","average_response_time","avg_rt","background","bidi","canvas_backend","clock_backend","color_backend","compensation","coordinates","correct","correct_instructions","correct_keyboard_response","correct_response","correct_target","count_about_this_template","count_blank","count_block_loop","count_block_sequence","count_end_of_experiment","count_end_of_practice","count_experiment","count_experimental_loop","count_feedback","count_fixation","count_instructions","count_keyboard_response","count_logger","count_practice_loop","count_prime","count_reset_feedback","count_target","count_trial_sequence","datetime","description","disable_garbage_collection","experiment_file","experiment_path","font_bold","font_family","font_italic","font_size","font_underline","foreground","form_clicks","fullscreen","height","keyboard_backend","live_row","live_row_block_loop","live_row_practice_loop","logfile","mouse_backend","opensesame_codename","opensesame_version","practice","prime","prime_condition","relation","repeat_cycle","response","response_end_of_experiment","response_end_of_practice","response_feedback","response_instructions","response_keyboard_response","response_target","response_time","response_time_end_of_experiment","response_time_end_of_practice","response_time_feedback","response_time_instructions","response_time_keyboard_response","response_time_target","round_decimals","sampler_backend","sound_buf_size","sound_channels","sound_freq","sound_sample_size","start","subject_nr","subject_parity","target","target_condition","time_about_this_template","time_blank","time_block_loop","time_block_sequence","time_end_of_experiment","time_end_of_practice","time_experiment","time_experimental_loop","time_feedback","time_fixation","time_instructions","time_keyboard_response","time_logger","time_practice_loop","time_prime","time_reset_feedback","time_target","time_trial_sequence","title","total_correct","total_response_time","total_responses","uniform_coordinates","width"
"0","0","0.01719989813864231","0.01719989813864231","white","yes","psycho","psycho","psycho","0","uniform","0","undefined","0","n","1","0","0","0","0","0","0","0","0","NA","0","0","0","0","0","0","0","0","0","Mon Dec  4 11:20:36 2023","A template containing a practice and an experimental phase","yes","언어학과심리실험_B조_기말과제용심리실험.osexp","E:\2023년도 1학기\언어학과심리실험","no","mono","no","18","no","black","no","no","768","psycho","0","0","0","E:\2023년도 1학기\언어학과심리실험\quickrun.csv","psycho","Lentiform Loewenfeld","3.3.14","yes","불","natural","no-correlation","0","None","NA","NA","NA","a","None","n","0.01719989813864231","NA","NA","NA","12584.016900043935","0.01719989813864231","2042.6360999699682","2","psycho","1024","2","48000","-16","experiment","999","odd","물고기","natural","NA","16449.088300112635","15661.24300006777","15661.142100114375","NA","NA","3028.7808999419212","NA","NA","15731.24590003863","3075.3683999646455","18600.81410012208","18600.906500127167","15660.677100066096","15941.106599988416","NA","16556.71830009669","15709.207799984142","Extended template","0","0.01719989813864231","1","yes","1024"
"0","0","0.016499892808496952","0.016499892808496952","white","yes","psycho","psycho","psycho","0","uniform","0","undefined","0","n","1","0","1","0","0","0","0","0","0","NA","1","0","1","1","0","1","0","1","1","Mon Dec  4 11:20:36 2023","A template containing a practice and an experimental phase","yes","언어학과심리실험_B조_기말과제용심리실험.osexp","E:\2023년도 1학기\언어학과심리실험","no","mono","no","18","no","black","no","no","768","psycho","1","1","0","E:\2023년도 1학기\언어학과심리실험\quickrun.csv","psycho","Lentiform Loewenfeld","3.3.14","yes","상새고","non-word","non-word","0","None","NA","NA","NA","a","None","n","0.015799887478351593","NA","NA","NA","12584.016900043935","0.015799887478351593","793.5937000438571","2","psycho","1024","2","48000","-16","experiment","999","odd","나뭇잎","natural","NA","19410.638500005007","15661.24300006777","15661.142100114375","NA","NA","3028.7808999419212","NA","NA","18695.31360012479","3075.3683999646455","20312.700600130484","20312.79360014014","15660.677100066096","18903.564000036567","NA","19517.750500002876","18687.222900101915","Extended template","0","0.032999785616993904","2","yes","1024"
"0","0","0.016633265962203343","0.016633265962203343","white","yes","psycho","psycho","psycho","0","uniform","0","undefined","0","n","1","0","2","0","0","0","0","0","0","NA","2","0","2","2","0","2","0","2","2","Mon Dec  4 11:20:36 2023","A template containing a practice and an experimental phase","yes","언어학과심리실험_B조_기말과제용심리실험.osexp","E:\2023년도 1학기\언어학과심리실험","no","mono","no","18","no","black","no","no","768","psycho","2","2","0","E:\2023년도 1학기\언어학과심리실험\quickrun.csv","psycho","Lentiform Loewenfeld","3.3.14","yes","언덕","natural","no-correlation","0","None","NA","NA","NA","a","None","n","0.016900012269616127","NA","NA","NA","12584.016900043935","0.016900012269616127","1775.6453999318182","2","psycho","1024","2","48000","-16","experiment","999","odd","고양이","natural","NA","21122.146400157362","15661.24300006777","15661.142100114375","NA","NA","3028.7808999419212","NA","NA","20400.70560015738","3075.3683999646455","23004.552100086585","23004.65190014802","15660.677100066096","20616.227500140667","NA","21227.693800115958","20390.898700105026","Extended template","0","0.04989979788661003","3","yes","1024"
"0","0","0.016799895092844963","0.016799895092844963","white","yes","psycho","psycho","psycho","0","uniform","0","undefined","0","x","1","0","3","1","1","0","0","0","0","NA","3","0","3","3","0","3","1","3","3","Mon Dec  4 11:20:36 2023","A template containing a practice and an experimental phase","yes","언어학과심리실험_B조_기말과제용심리실험.osexp","E:\2023년도 1학기\언어학과심리실험","no","mono","no","18","no","black","no","no","768","psycho","0","0","0","E:\2023년도 1학기\언어학과심리실험\quickrun.csv","psycho","Lentiform Loewenfeld","3.3.14","no","사자","natural","non-word","0","None","NA","n","NA","a","None","x","0.016799895092844963","NA","1744.593600044027","NA","12584.016900043935","0.016799895092844963","1626.3437999878079","2","psycho","1024","2","48000","-16","experiment","999","odd","러스바이","non-word","NA","25607.854299945757","24841.224600095302","24841.177500085905","NA","23094.752500066534","3028.7808999419212","24840.745799941942","NA","24887.502500088885","3075.3683999646455","27340.588600141928","27340.69039998576","15660.677100066096","25101.442500017583","NA","25713.030700106174","24880.447200033814","Extended template","0","0.016799895092844963","1","yes","1024"
"0","0","0.01734995748847723","0.01734995748847723","white","yes","psycho","psycho","psycho","0","uniform","0","undefined","0","n","1","0","4","1","1","0","0","0","0","NA","4","0","4","4","0","4","1","4","4","Mon Dec  4 11:20:36 2023","A template containing a practice and an experimental phase","yes","언어학과심리실험_B조_기말과제용심리실험.osexp","E:\2023년도 1학기\언어학과심리실험","no","mono","no","18","no","black","no","no","768","psycho","1","1","0","E:\2023년도 1학기\언어학과심리실험\quickrun.csv","psycho","Lentiform Loewenfeld","3.3.14","no","늪","natural","similar-environmental","0","None","NA","n","NA","a","None","n","0.017900019884109497","NA","1744.593600044027","NA","12584.016900043935","0.017900019884109497","717.69900014624","2","psycho","1024","2","48000","-16","experiment","999","odd","악어","natural","NA","28151.14720002748","24841.224600095302","24841.177500085905","NA","23094.752500066534","3028.7808999419212","24840.745799941942","NA","27429.685899987817","3075.3683999646455","28980.7315999642","28980.834499932826","15660.677100066096","27645.49249992706","NA","28261.610199930146","27418.7602000311","Extended template","0","0.03469991497695446","2","yes","1024"
"0","0","0.017233348141113918","0.017233348141113918","white","yes","psycho","psycho","psycho","0","uniform","0","undefined","0","a","1","0","5","1","1","0","0","0","0","NA","5","0","5","5","0","5","1","5","5","Mon Dec  4 11:20:36 2023","A template containing a practice and an experimental phase","yes","언어학과심리실험_B조_기말과제용심리실험.osexp","E:\2023년도 1학기\언어학과심리실험","no","mono","no","18","no","black","no","no","768","psycho","2","2","0","E:\2023년도 1학기\언어학과심리실험\quickrun.csv","psycho","Lentiform Loewenfeld","3.3.14","no","소나무","natural","same phoneme","0","None","NA","n","NA","a","None","a","0.01700012944638729","NA","1744.593600044027","NA","12584.016900043935","0.01700012944638729","902.8193999547511","2","psycho","1024","2","48000","-16","experiment","999","odd","소방서","artifactual","NA","29798.04820008576","24841.224600095302","24841.177500085905","NA","23094.752500066534","3028.7808999419212","24840.745799941942","NA","29076.6751000192","3075.3683999646455","30812.502200016752","30812.608000123873","15660.677100066096","29292.331299977377","NA","29908.496800111607","29067.16310000047","Extended template","0","0.05170004442334175","3","yes","1024"
"0","0","0.018674996681511402","0.018674996681511402","white","yes","psycho","psycho","psycho","0","uniform","0","undefined","0","n","1","0","6","1","1","0","0","0","0","NA","6","0","6","6","0","6","1","6","6","Mon Dec  4 11:20:36 2023","A template containing a practice and an experimental phase","yes","언어학과심리실험_B조_기말과제용심리실험.osexp","E:\2023년도 1학기\언어학과심리실험","no","mono","no","18","no","black","no","no","768","psycho","3","3","0","E:\2023년도 1학기\언어학과심리실험\quickrun.csv","psycho","Lentiform Loewenfeld","3.3.14","no","불","natural","no-correlation","0","None","NA","n","NA","a","None","n","0.022999942302703857","NA","1744.593600044027","NA","12584.016900043935","0.022999942302703857","967.2344999853522","2","psycho","1024","2","48000","-16","experiment","999","odd","바위","natural","NA","31630.735200131312","24841.224600095302","24841.177500085905","NA","23094.752500066534","3028.7808999419212","24840.745799941942","NA","30915.494000073522","3075.3683999646455","32704.581700032577","32704.71190009266","15660.677100066096","31123.430100036785","NA","31736.105400137603","30902.63790008612","Extended template","0","0.07469998672604561","4","yes","1024"
"0","0","0.01852000132203102","0.01852000132203102","white","yes","psycho","psycho","psycho","0","uniform","0","undefined","0","n","1","0","7","1","1","0","0","0","0","NA","7","0","7","7","0","7","1","7","7","Mon Dec  4 11:20:36 2023","A template containing a practice and an experimental phase","yes","언어학과심리실험_B조_기말과제용심리실험.osexp","E:\2023년도 1학기\언어학과심리실험","no","mono","no","18","no","black","no","no","768","psycho","4","4","0","E:\2023년도 1학기\언어학과심리실험\quickrun.csv","psycho","Lentiform Loewenfeld","3.3.14","no","밤하늘","natural","no-correlation","0","None","NA","n","NA","a","None","n","0.017900019884109497","NA","1744.593600044027","NA","12584.016900043935","0.017900019884109497","767.0366000384092","2","psycho","1024","2","48000","-16","experiment","999","odd","바위","natural","NA","33510.798500152305","24841.224600095302","24841.177500085905","NA","23094.752500066534","3028.7808999419212","24840.745799941942","NA","32795.25099997409","3075.3683999646455","34384.30320005864","34384.42190014757","15660.677100066096","33002.4952001404","NA","33616.276199929416","32786.98109998368","Extended template","0","0.0926000066101551","5","yes","1024"
"0","0","0.018150002385179203","0.018150002385179203","white","yes","psycho","psycho","psycho","0","uniform","0","undefined","0","n","1","0","8","1","1","0","0","0","0","NA","8","0","8","8","0","8","1","8","8","Mon Dec  4 11:20:36 2023","A template containing a practice and an experimental phase","yes","언어학과심리실험_B조_기말과제용심리실험.osexp","E:\2023년도 1학기\언어학과심리실험","no","mono","no","18","no","black","no","no","768","psycho","5","5","0","E:\2023년도 1학기\언어학과심리실험\quickrun.csv","psycho","Lentiform Loewenfeld","3.3.14","no","물고기","natural","no-correlation","0","None","NA","n","NA","a","None","n","0.016300007700920105","NA","1744.593600044027","NA","12584.016900043935","0.016300007700920105","1757.4941001366824","2","psycho","1024","2","48000","-16","experiment","999","odd","밤하늘","natural","NA","35182.43500008248","24841.224600095302","24841.177500085905","NA","23094.752500066534","3028.7808999419212","24840.745799941942","NA","34467.255000025034","3075.3683999646455","37048.30259992741","37048.42050001025","15660.677100066096","34674.63740007952","NA","35289.85109995119","34459.262300049886","Extended template","0","0.10890001431107521","6","yes","1024"
"0","0","0.018214274730001177","0.018214274730001177","white","yes","psycho","psycho","psycho","0","uniform","0","undefined","0","x","1","0","9","1","1","0","0","0","0","NA","9","0","9","9","0","9","1","9","9","Mon Dec  4 11:20:36 2023","A template containing a practice and an experimental phase","yes","언어학과심리실험_B조_기말과제용심리실험.osexp","E:\2023년도 1학기\언어학과심리실험","no","mono","no","18","no","black","no","no","768","psycho","6","6","0","E:\2023년도 1학기\언어학과심리실험\quickrun.csv","psycho","Lentiform Loewenfeld","3.3.14","no","절벽","natural","non-word","0","None","NA","n","NA","a","None","x","0.01859990879893303","NA","1744.593600044027","NA","12584.016900043935","0.01859990879893303","1532.022099941969","2","psycho","1024","2","48000","-16","experiment","999","odd","물로프","non-word","NA","37861.79510015063","24841.224600095302","24841.177500085905","NA","23094.752500066534","3028.7808999419212","24840.745799941942","NA","37137.80770008452","3075.3683999646455","39500.11770008132","39500.25609997101","15660.677100066096","37346.95259993896","NA","37967.313500121236","37127.07110005431","Extended template","0","0.12749992311000824","7","yes","1024"
"0","0","0.018449994968250394","0.018449994968250394","white","yes","psycho","psycho","psycho","0","uniform","0","undefined","0","n","1","0","10","1","1","0","0","0","0","NA","10","0","10","10","0","10","1","10","10","Mon Dec  4 11:20:36 2023","A template containing a practice and an experimental phase","yes","언어학과심리실험_B조_기말과제용심리실험.osexp","E:\2023년도 1학기\언어학과심리실험","no","mono","no","18","no","black","no","no","768","psycho","7","7","0","E:\2023년도 1학기\언어학과심리실험\quickrun.csv","psycho","Lentiform Loewenfeld","3.3.14","no","태양","natural","same phoneme","0","None","NA","n","NA","a","None","n","0.02010003663599491","NA","1744.593600044027","NA","12584.016900043935","0.02010003663599491","1420.780299929902","2","psycho","1024","2","48000","-16","experiment","999","odd","태풍","natural","NA","40315.22949994542","24841.224600095302","24841.177500085905","NA","23094.752500066534","3028.7808999419212","24840.745799941942","NA","39599.707500077784","3075.3683999646455","41844.254800118506","41844.446799950674","15660.677100066096","39806.863400153816","NA","40422.54370008595","39588.75890006311","Extended template","0","0.14759995974600315","8","yes","1024"
"0","0","0.018366664234134886","0.018366664234134886","white","yes","psycho","psycho","psycho","0","uniform","0","undefined","0","n","1","0","11","1","1","0","0","0","0","NA","11","0","11","11","0","11","1","11","11","Mon Dec  4 11:20:36 2023","A template containing a practice and an experimental phase","yes","언어학과심리실험_B조_기말과제용심리실험.osexp","E:\2023년도 1학기\언어학과심리실험","no","mono","no","18","no","black","no","no","768","psycho","8","8","0","E:\2023년도 1학기\언어학과심리실험\quickrun.csv","psycho","Lentiform Loewenfeld","3.3.14","no","꽃","natural","inclusive","0","None","NA","n","NA","a","None","n","0.017700018361210823","NA","1744.593600044027","NA","12584.016900043935","0.017700018361210823","848.5786002129316","2","psycho","1024","2","48000","-16","experiment","999","odd","해바라기","natural","NA","42652.87999995053","24841.224600095302","24841.177500085905","NA","23094.752500066534","3028.7808999419212","24840.745799941942","NA","41937.43610009551","3075.3683999646455","43608.170200139284","43608.305800007656","15660.677100066096","42144.56639997661","NA","42758.73659993522","41923.12690010294","Extended template","0","0.16529997810721397","9","yes","1024"
"0","0","0.018420000560581684","0.018420000560581684","white","yes","psycho","psycho","psycho","0","uniform","0","undefined","0","n","0","0","12","1","1","0","0","0","0","NA","12","0","12","12","0","12","1","12","12","Mon Dec  4 11:20:36 2023","A template containing a practice and an experimental phase","yes","언어학과심리실험_B조_기말과제용심리실험.osexp","E:\2023년도 1학기\언어학과심리실험","no","mono","no","18","no","black","no","no","768","psycho","9","9","0","E:\2023년도 1학기\언어학과심리실험\quickrun.csv","psycho","Lentiform Loewenfeld","3.3.14","no","달","artifactual","same phoneme","0","None","NA","n","NA","a","None","a","0.018900027498602867","NA","1744.593600044027","NA","12584.016900043935","0.018900027498602867","827.3138999938965","2","psycho","1024","2","48000","-16","experiment","999","odd","달력","natural","NA","44425.19999993965","24841.224600095302","24841.177500085905","NA","23094.752500066534","3028.7808999419212","24840.745799941942","NA","43700.76850010082","3075.3683999646455","45360.680599929765","45360.81889993511","15660.677100066096","43910.132500110194","NA","44531.928200041875","43687.33480013907","Extended template","0","0.18420000560581684","10","yes","1024"
"0","0","0.018209091980348934","0.018209091980348934","white","yes","psycho","psycho","psycho","0","uniform","0","undefined","0","x","1","0","13","1","1","0","0","0","0","NA","13","0","13","13","0","13","1","13","13","Mon Dec  4 11:20:36 2023","A template containing a practice and an experimental phase","yes","언어학과심리실험_B조_기말과제용심리실험.osexp","E:\2023년도 1학기\언어학과심리실험","no","mono","no","18","no","black","no","no","768","psycho","10","10","0","E:\2023년도 1학기\언어학과심리실험\quickrun.csv","psycho","Lentiform Loewenfeld","3.3.14","no","냉장고","artifactual","non-word","0","None","NA","n","NA","a","None","x","0.01610000617802143","NA","1744.593600044027","NA","12584.016900043935","0.01610000617802143","905.6654998566955","2","psycho","1024","2","48000","-16","experiment","999","odd","로방삭","non-word","NA","46180.08209997788","24841.224600095302","24841.177500085905","NA","23094.752500066534","3028.7808999419212","24840.745799941942","NA","45456.00440003909","3075.3683999646455","47192.561800125986","47192.70250014961","15660.677100066096","45671.78270011209","NA","46285.62190011144","45444.637099979445","Extended template","0","0.20030001178383827","11","yes","1024"
"0","0","0.017933334068705637","0.017933334068705637","white","yes","psycho","psycho","psycho","0","uniform","0","undefined","0","n","1","0","14","1","1","0","0","0","0","NA","14","0","14","14","0","14","1","14","14","Mon Dec  4 11:20:36 2023","A template containing a practice and an experimental phase","yes","언어학과심리실험_B조_기말과제용심리실험.osexp","E:\2023년도 1학기\언어학과심리실험","no","mono","no","18","no","black","no","no","768","psycho","11","11","0","E:\2023년도 1학기\언어학과심리실험\quickrun.csv","psycho","Lentiform Loewenfeld","3.3.14","no","곡물","natural","inclusive","0","None","NA","n","NA","a","None","n","0.014899997040629387","NA","1744.593600044027","NA","12584.016900043935","0.014899997040629387","2951.477099908516","2","psycho","1024","2","48000","-16","experiment","999","odd","밀","natural","NA","47993.39390010573","24841.224600095302","24841.177500085905","NA","23094.752500066534","3028.7808999419212","24840.745799941942","NA","47277.82650012523","3075.3683999646455","51051.05819995515","51051.199099980295","15660.677100066096","47485.759699949995","NA","48099.10420002416","47269.05929995701","Extended template","0","0.21520000882446766","12","yes","1024"
"0","0","0.01791536879654114","0.01791536879654114","white","yes","psycho","psycho","psycho","0","uniform","0","undefined","0","n","1","0","15","1","1","0","0","0","0","NA","15","0","15","15","0","15","1","15","15","Mon Dec  4 11:20:36 2023","A template containing a practice and an experimental phase","yes","언어학과심리실험_B조_기말과제용심리실험.osexp","E:\2023년도 1학기\언어학과심리실험","no","mono","no","18","no","black","no","no","768","psycho","12","12","0","E:\2023년도 1학기\언어학과심리실험\quickrun.csv","psycho","Lentiform Loewenfeld","3.3.14","no","과일","natural","inclusive","0","None","NA","n","NA","a","None","n","0.01769978553056717","NA","1744.593600044027","NA","12584.016900043935","0.01769978553056717","1128.1427000649273","2","psycho","1024","2","48000","-16","experiment","999","odd","사과","natural","NA","51861.89309996553","24841.224600095302","24841.177500085905","NA","23094.752500066534","3028.7808999419212","24840.745799941942","NA","51137.676700018346","3075.3683999646455","53096.67500015348","53096.82480012998","15660.677100066096","51345.75189999305","NA","51967.1388999559","51129.040800035","Extended template","0","0.23289979435503483","13","yes","1024"
"0","0","0.017821406280355796","0.017821406280355796","white","yes","psycho","psycho","psycho","0","uniform","0","undefined","0","n","1","0","16","1","1","0","0","0","0","NA","16","0","16","16","0","16","1","16","16","Mon Dec  4 11:20:36 2023","A template containing a practice and an experimental phase","yes","언어학과심리실험_B조_기말과제용심리실험.osexp","E:\2023년도 1학기\언어학과심리실험","no","mono","no","18","no","black","no","no","768","psycho","13","13","0","E:\2023년도 1학기\언어학과심리실험\quickrun.csv","psycho","Lentiform Loewenfeld","3.3.14","no","스노우보드","artifactual","no-correlation","0","None","NA","n","NA","a","None","n","0.01659989356994629","NA","1744.593600044027","NA","12584.016900043935","0.01659989356994629","878.278800053522","2","psycho","1024","2","48000","-16","experiment","999","odd","소나무","natural","NA","53907.75500005111","24841.224600095302","24841.177500085905","NA","23094.752500066534","3028.7808999419212","24840.745799941942","NA","53192.45330011472","3075.3683999646455","54892.83280004747","54892.990600084886","15660.677100066096","53399.63120012544","NA","54013.067099964246","53178.329300135374","Extended template","0","0.24949968792498112","14","yes","1024"
"0","0","0.017966656014323235","0.017966656014323235","white","yes","psycho","psycho","psycho","0","uniform","0","undefined","0","n","1","0","17","1","1","0","0","0","0","NA","17","0","17","17","0","17","1","17","17","Mon Dec  4 11:20:36 2023","A template containing a practice and an experimental phase","yes","언어학과심리실험_B조_기말과제용심리실험.osexp","E:\2023년도 1학기\언어학과심리실험","no","mono","no","18","no","black","no","no","768","psycho","14","14","0","E:\2023년도 1학기\언어학과심리실험\quickrun.csv","psycho","Lentiform Loewenfeld","3.3.14","no","등산로","artifactual","similar-environmental","0","None","NA","n","NA","a","None","n","0.0200001522898674","NA","1744.593600044027","NA","12584.016900043935","0.0200001522898674","632.7304001897573","2","psycho","1024","2","48000","-16","experiment","999","odd","산","natural","NA","55713.0350000225","24841.224600095302","24841.177500085905","NA","23094.752500066534","3028.7808999419212","24840.745799941942","NA","54989.20670012012","3075.3683999646455","56452.61549996212","56452.77939992957","15660.677100066096","55197.33710004948","NA","55818.54759994894","54974.414699943736","Extended template","0","0.2694998402148485","15","yes","1024"
"0","0","0.01789374800864607","0.01789374800864607","white","yes","psycho","psycho","psycho","0","uniform","0","undefined","0","a","1","0","18","1","1","0","0","0","0","NA","18","0","18","18","0","18","1","18","18","Mon Dec  4 11:20:36 2023","A template containing a practice and an experimental phase","yes","언어학과심리실험_B조_기말과제용심리실험.osexp","E:\2023년도 1학기\언어학과심리실험","no","mono","no","18","no","black","no","no","768","psycho","15","15","0","E:\2023년도 1학기\언어학과심리실험\quickrun.csv","psycho","Lentiform Loewenfeld","3.3.14","no","구름","natural","same phoneme","0","None","NA","n","NA","a","None","a","0.016800127923488617","NA","1744.593600044027","NA","12584.016900043935","0.016800127923488617","1317.5473001319915","2","psycho","1024","2","48000","-16","experiment","999","odd","구슬","artifactual","NA","57260.24150010198","24841.224600095302","24841.177500085905","NA","23094.752500066534","3028.7808999419212","24840.745799941942","NA","56544.93120010011","3075.3683999646455","58684.27349999547","58684.4389999751","15660.677100066096","56751.842899946496","NA","57365.77289993875","56530.06020002067","Extended template","0","0.28629996813833714","16","yes","1024"
"0","0","0.01782351447378888","0.01782351447378888","white","yes","psycho","psycho","psycho","0","uniform","0","undefined","0","a","0","0","19","1","1","0","0","0","0","NA","19","0","19","19","0","19","1","19","19","Mon Dec  4 11:20:36 2023","A template containing a practice and an experimental phase","yes","언어학과심리실험_B조_기말과제용심리실험.osexp","E:\2023년도 1학기\언어학과심리실험","no","mono","no","18","no","black","no","no","768","psycho","16","16","0","E:\2023년도 1학기\언어학과심리실험\quickrun.csv","psycho","Lentiform Loewenfeld","3.3.14","no","플피","non-word","non-word","0","None","NA","n","NA","a","None","n","0.0166997779160738","NA","1744.593600044027","NA","12584.016900043935","0.0166997779160738","620.5154999624938","2","psycho","1024","2","48000","-16","experiment","999","odd","책상","artifactual","NA","59489.36430015601","24841.224600095302","24841.177500085905","NA","23094.752500066534","3028.7808999419212","24840.745799941942","NA","58774.26560013555","3075.3683999646455","60216.61510015838","60216.787700075656","15660.677100066096","58981.04889993556","NA","59594.771600095555","58761.41720009036","Extended template","0","0.30299974605441093","17","yes","1024"
"0","0","0.018161100645860035","0.018161100645860035","white","yes","psycho","psycho","psycho","0","uniform","0","undefined","0","a","1","0","20","1","1","0","0","0","0","NA","20","0","20","20","0","20","1","20","20","Mon Dec  4 11:20:36 2023","A template containing a practice and an experimental phase","yes","언어학과심리실험_B조_기말과제용심리실험.osexp","E:\2023년도 1학기\언어학과심리실험","no","mono","no","18","no","black","no","no","768","psycho","17","17","0","E:\2023년도 1학기\언어학과심리실험\quickrun.csv","psycho","Lentiform Loewenfeld","3.3.14","no","영화","artifactual","similar-environmental","0","None","NA","n","NA","a","None","a","0.023900065571069717","NA","1744.593600044027","NA","12584.016900043935","0.023900065571069717","981.7699000705034","2","psycho","1024","2","48000","-16","experiment","999","odd","드라마","artifactual","NA","61028.63580011763","24841.224600095302","24841.177500085905","NA","23094.752500066534","3028.7808999419212","24840.745799941942","NA","60313.26640001498","3075.3683999646455","62124.69299999066","62124.881400028244","15660.677100066096","60520.11330006644","NA","61141.52040006593","60297.26419993676","Extended template","0","0.32689981162548065","18","yes","1024"
"0","0","0.018078944106635294","0.018078944106635294","white","yes","psycho","psycho","psycho","0","uniform","0","undefined","0","a","1","0","21","1","1","0","0","0","0","NA","21","0","21","21","0","21","1","21","21","Mon Dec  4 11:20:36 2023","A template containing a practice and an experimental phase","yes","언어학과심리실험_B조_기말과제용심리실험.osexp","E:\2023년도 1학기\언어학과심리실험","no","mono","no","18","no","black","no","no","768","psycho","18","18","0","E:\2023년도 1학기\언어학과심리실험\quickrun.csv","psycho","Lentiform Loewenfeld","3.3.14","no","해변","natural","similar-environmental","0","None","NA","n","NA","a","None","a","0.016600126400589943","NA","1744.593600044027","NA","12584.016900043935","0.016600126400589943","1176.212799968198","2","psycho","1024","2","48000","-16","experiment","999","odd","파라솔","artifactual","NA","62949.771699961275","24841.224600095302","24841.177500085905","NA","23094.752500066534","3028.7808999419212","24840.745799941942","NA","62226.35950008407","3075.3683999646455","64232.7827999834","64232.96079994179","15660.677100066096","62441.96530012414","NA","63055.08040008135","62215.12940013781","Extended template","0","0.3434999380260706","19","yes","1024"
"0","0","0.01802499173209071","0.01802499173209071","white","yes","psycho","psycho","psycho","0","uniform","0","undefined","0","a","1","0","22","1","1","0","0","0","0","NA","22","0","22","22","0","22","1","22","22","Mon Dec  4 11:20:36 2023","A template containing a practice and an experimental phase","yes","언어학과심리실험_B조_기말과제용심리실험.osexp","E:\2023년도 1학기\언어학과심리실험","no","mono","no","18","no","black","no","no","768","psycho","19","19","0","E:\2023년도 1학기\언어학과심리실험\quickrun.csv","psycho","Lentiform Loewenfeld","3.3.14","no","모니터","artifactual","same phoneme","0","None","NA","n","NA","a","None","a","0.016999896615743637","NA","1744.593600044027","NA","12584.016900043935","0.016999896615743637","1000.6593000143766","2","psycho","1024","2","48000","-16","experiment","999","odd","모터","artifactual","NA","65037.0910000056","24841.224600095302","24841.177500085905","NA","23094.752500066534","3028.7808999419212","24840.745799941942","NA","64318.54850007221","3075.3683999646455","66144.39090015367","66144.57020000555","15660.677100066096","64529.739500023425","NA","65142.65950000845","64311.78430002183","Extended template","0","0.36049983464181423","20","yes","1024"
"0","0","0.01885713122430302","0.01885713122430302","white","yes","psycho","psycho","psycho","0","uniform","0","undefined","0","a","1","0","23","1","1","0","0","0","0","NA","23","0","23","23","0","23","1","23","23","Mon Dec  4 11:20:36 2023","A template containing a practice and an experimental phase","yes","언어학과심리실험_B조_기말과제용심리실험.osexp","E:\2023년도 1학기\언어학과심리실험","no","mono","no","18","no","black","no","no","768","psycho","20","20","0","E:\2023년도 1학기\언어학과심리실험\quickrun.csv","psycho","Lentiform Loewenfeld","3.3.14","no","구름","natural","same phoneme","0","None","NA","n","NA","a","None","a","0.035499921068549156","NA","1744.593600044027","NA","12584.016900043935","0.035499921068549156","2066.457600099966","2","psycho","1024","2","48000","-16","experiment","999","odd","구두","artifactual","NA","66959.63419997133","24841.224600095302","24841.177500085905","NA","23094.752500066534","3028.7808999419212","24840.745799941942","NA","66244.34480001219","3075.3683999646455","69132.74700008333","69132.98370013945","15660.677100066096","66450.96760010347","NA","67064.84719994478","66231.77139996551","Extended template","0","0.3959997557103634","21","yes","1024"
"0","0","0.018736347556114197","0.018736347556114197","white","yes","psycho","psycho","psycho","0","uniform","0","undefined","0","a","1","0","24","1","1","0","0","0","0","NA","24","0","24","24","0","24","1","24","24","Mon Dec  4 11:20:36 2023","A template containing a practice and an experimental phase","yes","언어학과심리실험_B조_기말과제용심리실험.osexp","E:\2023년도 1학기\언어학과심리실험","no","mono","no","18","no","black","no","no","768","psycho","21","21","0","E:\2023년도 1학기\언어학과심리실험\quickrun.csv","psycho","Lentiform Loewenfeld","3.3.14","no","벌레","natural","same phoneme","0","None","NA","n","NA","a","None","a","0.01619989052414894","NA","1744.593600044027","NA","12584.016900043935","0.01619989052414894","1080.0546000245959","2","psycho","1024","2","48000","-16","experiment","999","odd","발레","artifactual","NA","69935.77440013178","24841.224600095302","24841.177500085905","NA","23094.752500066534","3028.7808999419212","24840.745799941942","NA","69222.35699999146","3075.3683999646455","71128.51370009594","71128.70350014418","15660.677100066096","69429.22680010088","NA","70047.24949994124","69211.71279996634","Extended template","0","0.41219964623451233","22","yes","1024"
"0","0","0.01862172401793625","0.01862172401793625","white","yes","psycho","psycho","psycho","0","uniform","0","undefined","0","a","1","0","25","1","1","0","0","0","0","NA","25","0","25","25","0","25","1","25","25","Mon Dec  4 11:20:36 2023","A template containing a practice and an experimental phase","yes","언어학과심리실험_B조_기말과제용심리실험.osexp","E:\2023년도 1학기\언어학과심리실험","no","mono","no","18","no","black","no","no","768","psycho","22","22","0","E:\2023년도 1학기\언어학과심리실험\quickrun.csv","psycho","Lentiform Loewenfeld","3.3.14","no","교통","artifactual","inclusive","0","None","NA","n","NA","a","None","a","0.01610000617802143","NA","1744.593600044027","NA","12584.016900043935","0.01610000617802143","703.7021999713033","2","psycho","1024","2","48000","-16","experiment","999","odd","자동차","artifactual","NA","71933.90480009839","24841.224600095302","24841.177500085905","NA","23094.752500066534","3028.7808999419212","24840.745799941942","NA","71218.70970004238","3075.3683999646455","72744.72229997627","72744.9185999576","15660.677100066096","71426.61250010133","NA","72039.60020001978","71206.66699996218","Extended template","0","0.42829965241253376","23","yes","1024"
"0","0","0.01859998640914758","0.01859998640914758","white","yes","psycho","psycho","psycho","0","uniform","0","undefined","0","n","1","0","26","1","1","0","0","0","0","NA","26","0","26","26","0","26","1","26","26","Mon Dec  4 11:20:36 2023","A template containing a practice and an experimental phase","yes","언어학과심리실험_B조_기말과제용심리실험.osexp","E:\2023년도 1학기\언어학과심리실험","no","mono","no","18","no","black","no","no","768","psycho","23","23","0","E:\2023년도 1학기\언어학과심리실험\quickrun.csv","psycho","Lentiform Loewenfeld","3.3.14","no","숲","natural","inclusive","0","None","NA","n","NA","a","None","n","0.01810002140700817","NA","1744.593600044027","NA","12584.016900043935","0.01810002140700817","649.6987000573426","2","psycho","1024","2","48000","-16","experiment","999","odd","나무","natural","NA","73548.02680015564","24841.224600095302","24841.177500085905","NA","23094.752500066534","3028.7808999419212","24840.745799941942","NA","72832.46299996972","3075.3683999646455","74304.64250012301","74304.86669996753","15660.677100066096","73039.28770008497","NA","73653.59760005958","72819.41320002079","Extended template","0","0.44639967381954193","24","yes","1024"
"0","0","0.018495982512831688","0.018495982512831688","white","yes","psycho","psycho","psycho","0","uniform","0","undefined","0","a","1","0","27","1","1","0","0","0","0","NA","27","0","27","27","0","27","1","27","27","Mon Dec  4 11:20:36 2023","A template containing a practice and an experimental phase","yes","언어학과심리실험_B조_기말과제용심리실험.osexp","E:\2023년도 1학기\언어학과심리실험","no","mono","no","18","no","black","no","no","768","psycho","24","24","0","E:\2023년도 1학기\언어학과심리실험\quickrun.csv","psycho","Lentiform Loewenfeld","3.3.14","no","피자","artifactual","similar-environmental","0","None","NA","n","NA","a","None","a","0.015999889001250267","NA","1744.593600044027","NA","12584.016900043935","0.015999889001250267","1257.260800106451","2","psycho","1024","2","48000","-16","experiment","999","odd","파스타","artifactual","NA","75112.10369993933","24841.224600095302","24841.177500085905","NA","23094.752500066534","3028.7808999419212","24840.745799941942","NA","74396.76370006055","3075.3683999646455","76476.30670014769","76476.50770004839","15660.677100066096","74603.67590002716","NA","75217.96149993315","74383.82770004682","Extended template","0","0.4623995628207922","25","yes","1024"
"0","0","0.018392295504991826","0.018392295504991826","white","yes","psycho","psycho","psycho","0","uniform","0","undefined","0","a","0","0","28","1","1","0","0","0","0","NA","28","0","28","28","0","28","1","28","28","Mon Dec  4 11:20:36 2023","A template containing a practice and an experimental phase","yes","언어학과심리실험_B조_기말과제용심리실험.osexp","E:\2023년도 1학기\언어학과심리실험","no","mono","no","18","no","black","no","no","768","psycho","25","25","0","E:\2023년도 1학기\언어학과심리실험\quickrun.csv","psycho","Lentiform Loewenfeld","3.3.14","no","바다","natural","similar-environmental","0","None","NA","n","NA","a","None","n","0.015800120308995247","NA","1744.593600044027","NA","12584.016900043935","0.015800120308995247","2247.279099887237","2","psycho","1024","2","48000","-16","experiment","999","odd","배","artifactual","NA","77282.5835000258","24841.224600095302","24841.177500085905","NA","23094.752500066534","3028.7808999419212","24840.745799941942","NA","76567.4479000736","3075.3683999646455","79636.36370003223","79636.57040009275","15660.677100066096","76774.71080003306","NA","77388.00600008108","76553.00069996156","Extended template","0","0.47819968312978745","26","yes","1024"
"0","0","0.018344424595987355","0.018344424595987355","white","yes","psycho","psycho","psycho","0","uniform","0","undefined","0","n","1","0","29","1","1","0","0","0","0","NA","29","0","29","29","0","29","1","29","29","Mon Dec  4 11:20:36 2023","A template containing a practice and an experimental phase","yes","언어학과심리실험_B조_기말과제용심리실험.osexp","E:\2023년도 1학기\언어학과심리실험","no","mono","no","18","no","black","no","no","768","psycho","26","26","0","E:\2023년도 1학기\언어학과심리실험\quickrun.csv","psycho","Lentiform Loewenfeld","3.3.14","no","모래","natural","similar-environmental","0","None","NA","n","NA","a","None","n","0.017099780961871147","NA","1744.593600044027","NA","12584.016900043935","0.017099780961871147","2170.327499974519","2","psycho","1024","2","48000","-16","experiment","999","odd","자갈","natural","NA","80435.51790015772","24841.224600095302","24841.177500085905","NA","23094.752500066534","3028.7808999419212","24840.745799941942","NA","79720.43920005672","3075.3683999646455","82712.76150015183","82712.97380002216","15660.677100066096","79928.8733000867","NA","80540.98970000632","79712.72810013033","Extended template","0","0.4952994640916586","27","yes","1024"
"0","0","0.018264266795345714","0.018264266795345714","white","yes","psycho","psycho","psycho","0","uniform","0","undefined","0","n","1","0","30","1","1","0","0","0","0","NA","30","0","30","30","0","30","1","30","30","Mon Dec  4 11:20:36 2023","A template containing a practice and an experimental phase","yes","언어학과심리실험_B조_기말과제용심리실험.osexp","E:\2023년도 1학기\언어학과심리실험","no","mono","no","18","no","black","no","no","768","psycho","27","27","0","E:\2023년도 1학기\언어학과심리실험\quickrun.csv","psycho","Lentiform Loewenfeld","3.3.14","no","바다","natural","same phoneme","0","None","NA","n","NA","a","None","n","0.01610000617802143","NA","1744.593600044027","NA","12584.016900043935","0.01610000617802143","1434.6238998696208","2","psycho","1024","2","48000","-16","experiment","999","odd","바퀴벌레","natural","NA","83530.22320009768","24841.224600095302","24841.177500085905","NA","23094.752500066534","3028.7808999419212","24840.745799941942","NA","82806.45229993388","3075.3683999646455","85072.82050000504","85073.0421000626","15660.677100066096","83022.11300004274","NA","83636.65860006586","82791.81389999576","Extended template","0","0.51139947026968","28","yes","1024"
"0","0","0.018841362205044978","0.018841362205044978","white","yes","psycho","psycho","psycho","0","uniform","0","undefined","0","a","1","0","31","1","1","0","0","0","0","NA","31","0","31","31","0","31","1","31","31","Mon Dec  4 11:20:36 2023","A template containing a practice and an experimental phase","yes","언어학과심리실험_B조_기말과제용심리실험.osexp","E:\2023년도 1학기\언어학과심리실험","no","mono","no","18","no","black","no","no","768","psycho","28","28","0","E:\2023년도 1학기\언어학과심리실험\quickrun.csv","psycho","Lentiform Loewenfeld","3.3.14","no","경주","artifactual","no-correlation","0","None","NA","n","NA","a","None","a","0.0350000336766243","NA","1744.593600044027","NA","12584.016900043935","0.0350000336766243","1008.7188000325114","2","psycho","1024","2","48000","-16","experiment","999","odd","버스","artifactual","NA","85909.21579999849","24841.224600095302","24841.177500085905","NA","23094.752500066534","3028.7808999419212","24840.745799941942","NA","85177.42690001614","3075.3683999646455","87024.31160002016","87024.80110013857","15660.677100066096","85395.6319000572","NA","86014.51930007897","85161.26419999637","Extended template","0","0.5463995039463043","29","yes","1024"
"0","0","0.018846654954055946","0.018846654954055946","white","yes","psycho","psycho","psycho","0","uniform","0","undefined","0","n","1","0","32","1","1","0","0","0","0","NA","32","0","32","32","0","32","1","32","32","Mon Dec  4 11:20:36 2023","A template containing a practice and an experimental phase","yes","언어학과심리실험_B조_기말과제용심리실험.osexp","E:\2023년도 1학기\언어학과심리실험","no","mono","no","18","no","black","no","no","768","psycho","29","29","0","E:\2023년도 1학기\언어학과심리실험\quickrun.csv","psycho","Lentiform Loewenfeld","3.3.14","no","호수","natural","same phoneme","0","None","NA","n","NA","a","None","n","0.01900014467537403","NA","1744.593600044027","NA","12584.016900043935","0.01900014467537403","9719.748200150207","2","psycho","1024","2","48000","-16","experiment","999","odd","호랑이","natural","NA","87940.96200005151","24841.224600095302","24841.177500085905","NA","23094.752500066534","3028.7808999419212","24840.745799941942","NA","87211.23729995452","3075.3683999646455","97768.248999957","97768.50110013038","15660.677100066096","87431.83639994822","NA","88047.52589995041","87169.03460002504","Extended template","0","0.5653996486216784","30","yes","1024"
"0","0","0.018780637953069904","0.018780637953069904","white","yes","psycho","psycho","psycho","0","uniform","0","undefined","0","n","1","0","33","1","1","0","0","0","0","NA","33","0","33","33","0","33","1","33","33","Mon Dec  4 11:20:36 2023","A template containing a practice and an experimental phase","yes","언어학과심리실험_B조_기말과제용심리실험.osexp","E:\2023년도 1학기\언어학과심리실험","no","mono","no","18","no","black","no","no","768","psycho","30","30","0","E:\2023년도 1학기\언어학과심리실험\quickrun.csv","psycho","Lentiform Loewenfeld","3.3.14","no","호랑이","natural","same phoneme","0","None","NA","n","NA","a","None","n","0.016800127923488617","NA","1744.593600044027","NA","12584.016900043935","0.016800127923488617","1194.371100049466","2","psycho","1024","2","48000","-16","experiment","999","odd","호수","natural","NA","98578.55650014244","24841.224600095302","24841.177500085905","NA","23094.752500066534","3028.7808999419212","24840.745799941942","NA","97863.53909992613","3075.3683999646455","99880.4128000047","99880.64380013384","15660.677100066096","98070.61930000782","NA","98684.91420010105","97849.4353001006","Extended template","0","0.582199776545167","31","yes","1024"
"0","0","0.01870311825769022","0.01870311825769022","white","yes","psycho","psycho","psycho","0","uniform","0","undefined","0","a","1","0","34","1","1","0","0","0","0","NA","34","0","34","34","0","34","1","34","34","Mon Dec  4 11:20:36 2023","A template containing a practice and an experimental phase","yes","언어학과심리실험_B조_기말과제용심리실험.osexp","E:\2023년도 1학기\언어학과심리실험","no","mono","no","18","no","black","no","no","768","psycho","31","31","0","E:\2023년도 1학기\언어학과심리실험\quickrun.csv","psycho","Lentiform Loewenfeld","3.3.14","no","꽃","natural","no-correlation","0","None","NA","n","NA","a","None","a","0.016300007700920105","NA","1744.593600044027","NA","12584.016900043935","0.016300007700920105","1046.9601000659168","2","psycho","1024","2","48000","-16","experiment","999","odd","풍차","artifactual","NA","100683.09219996445","24841.224600095302","24841.177500085905","NA","23094.752500066534","3028.7808999419212","24840.745799941942","NA","99967.70199993625","3075.3683999646455","101836.72520006076","101836.96050010622","15660.677100066096","100176.08699994162","NA","100788.32220006734","99955.69670014083","Extended template","0","0.5984997842460871","32","yes","1024"
"0","0","0.01868484259554834","0.01868484259554834","white","yes","psycho","psycho","psycho","0","uniform","0","undefined","0","a","1","0","35","1","1","0","0","0","0","NA","35","0","35","35","0","35","1","35","35","Mon Dec  4 11:20:36 2023","A template containing a practice and an experimental phase","yes","언어학과심리실험_B조_기말과제용심리실험.osexp","E:\2023년도 1학기\언어학과심리실험","no","mono","no","18","no","black","no","no","768","psycho","32","32","0","E:\2023년도 1학기\언어학과심리실험\quickrun.csv","psycho","Lentiform Loewenfeld","3.3.14","no","학적","artifactual","same phoneme","0","None","NA","n","NA","a","None","a","0.01810002140700817","NA","1744.593600044027","NA","12584.016900043935","0.01810002140700817","1095.0527000240982","2","psycho","1024","2","48000","-16","experiment","999","odd","학술","artifactual","NA","102654.58860015497","24841.224600095302","24841.177500085905","NA","23094.752500066534","3028.7808999419212","24840.745799941942","NA","101931.065000128","3075.3683999646455","103856.20329994708","103856.46750009619","15660.677100066096","102146.46439999342","NA","102760.21880004555","101916.99680010788","Extended template","0","0.6165998056530952","33","yes","1024"
"0","0","0.018655877176891354","0.018655877176891354","white","yes","psycho","psycho","psycho","0","uniform","0","undefined","0","n","1","0","36","1","1","0","0","0","0","NA","36","0","36","36","0","36","1","36","36","Mon Dec  4 11:20:36 2023","A template containing a practice and an experimental phase","yes","언어학과심리실험_B조_기말과제용심리실험.osexp","E:\2023년도 1학기\언어학과심리실험","no","mono","no","18","no","black","no","no","768","psycho","33","33","0","E:\2023년도 1학기\언어학과심리실험\quickrun.csv","psycho","Lentiform Loewenfeld","3.3.14","no","악어","natural","similar-environmental","0","None","NA","n","NA","a","None","n","0.017700018361210823","NA","1744.593600044027","NA","12584.016900043935","0.017700018361210823","784.143699798733","2","psycho","1024","2","48000","-16","experiment","999","odd","늪","natural","NA","104663.42870006338","24841.224600095302","24841.177500085905","NA","23094.752500066534","3028.7808999419212","24840.745799941942","NA","103952.22040009685","3075.3683999646455","105560.59290003031","105560.83520012908","15660.677100066096","104158.56879996136","NA","104775.06020013243","103939.7164999973","Extended template","0","0.6342998240143061","34","yes","1024"
"0","0","0.018611417285033634","0.018611417285033634","white","yes","psycho","psycho","psycho","0","uniform","0","undefined","0","a","1","0","37","1","1","0","0","0","0","NA","37","0","37","37","0","37","1","37","37","Mon Dec  4 11:20:36 2023","A template containing a practice and an experimental phase","yes","언어학과심리실험_B조_기말과제용심리실험.osexp","E:\2023년도 1학기\언어학과심리실험","no","mono","no","18","no","black","no","no","768","psycho","34","34","0","E:\2023년도 1학기\언어학과심리실험\quickrun.csv","psycho","Lentiform Loewenfeld","3.3.14","no","바람","natural","no-correlation","0","None","NA","n","NA","a","None","a","0.017099780961871147","NA","1744.593600044027","NA","12584.016900043935","0.017099780961871147","958.6205000523478","2","psycho","1024","2","48000","-16","experiment","999","odd","버스","artifactual","NA","106389.8398000747","24841.224600095302","24841.177500085905","NA","23094.752500066534","3028.7808999419212","24840.745799941942","NA","105666.01760010235","3075.3683999646455","107456.2634001486","107456.5177001059","15660.677100066096","105881.64900010452","NA","106496.70840008184","105651.07419993728","Extended template","0","0.6513996049761772","35","yes","1024"
"0","0","0.01858610064826078","0.01858610064826078","white","yes","psycho","psycho","psycho","0","uniform","0","undefined","0","x","1","0","38","1","1","0","0","0","0","NA","38","0","38","38","0","38","1","38","38","Mon Dec  4 11:20:36 2023","A template containing a practice and an experimental phase","yes","언어학과심리실험_B조_기말과제용심리실험.osexp","E:\2023년도 1학기\언어학과심리실험","no","mono","no","18","no","black","no","no","768","psycho","35","35","0","E:\2023년도 1학기\언어학과심리실험\quickrun.csv","psycho","Lentiform Loewenfeld","3.3.14","no","벨트","artifactual","non-word","0","None","NA","n","NA","a","None","x","0.017700018361210823","NA","1744.593600044027","NA","12584.016900043935","0.017700018361210823","786.9319000747055","2","psycho","1024","2","48000","-16","experiment","999","odd","진웬","non-word","NA","108261.3973999396","24841.224600095302","24841.177500085905","NA","23094.752500066534","3028.7808999419212","24840.745799941942","NA","107545.91240012087","3075.3683999646455","109156.53869998641","109156.79250005633","15660.677100066096","107752.04130006023","NA","108368.34180005826","107534.95230013505","Extended template","0","0.669099623337388","36","yes","1024"
"0","0","0.018570257501827704","0.018570257501827704","white","yes","psycho","psycho","psycho","0","uniform","0","undefined","0","a","1","0","39","1","1","0","0","0","0","NA","39","0","39","39","0","39","1","39","39","Mon Dec  4 11:20:36 2023","A template containing a practice and an experimental phase","yes","언어학과심리실험_B조_기말과제용심리실험.osexp","E:\2023년도 1학기\언어학과심리실험","no","mono","no","18","no","black","no","no","768","psycho","36","36","0","E:\2023년도 1학기\언어학과심리실험\quickrun.csv","psycho","Lentiform Loewenfeld","3.3.14","no","기계","artifactual","inclusive","0","None","NA","n","NA","a","None","a","0.017999904230237007","NA","1744.593600044027","NA","12584.016900043935","0.017999904230237007","1174.133599968627","2","psycho","1024","2","48000","-16","experiment","999","odd","컴퓨터","artifactual","NA","109958.20290013216","24841.224600095302","24841.177500085905","NA","23094.752500066534","3028.7808999419212","24840.745799941942","NA","109242.86390002817","3075.3683999646455","111240.72730005719","111240.98700005561","15660.677100066096","109449.46389994584","NA","110065.15130004846","109234.91130000912","Extended template","0","0.687099527567625","37","yes","1024"
"0","0","0.01849998769007231","0.01849998769007231","white","yes","psycho","psycho","psycho","0","uniform","0","undefined","0","a","1","0","40","1","1","0","0","0","0","NA","40","0","40","40","0","40","1","40","40","Mon Dec  4 11:20:36 2023","A template containing a practice and an experimental phase","yes","언어학과심리실험_B조_기말과제용심리실험.osexp","E:\2023년도 1학기\언어학과심리실험","no","mono","no","18","no","black","no","no","768","psycho","37","37","0","E:\2023년도 1학기\언어학과심리실험\quickrun.csv","psycho","Lentiform Loewenfeld","3.3.14","no","기차","artifactual","no-correlation","0","None","NA","n","NA","a","None","a","0.015900004655122757","NA","1744.593600044027","NA","12584.016900043935","0.015900004655122757","679.6850000973791","2","psycho","1024","2","48000","-16","experiment","999","odd","가방","artifactual","NA","112046.19990009815","24841.224600095302","24841.177500085905","NA","23094.752500066534","3028.7808999419212","24840.745799941942","NA","111330.8089999482","3075.3683999646455","112832.44429994375","112832.71749992855","15660.677100066096","111537.7575000748","NA","112151.56559995376","111319.35240002349","Extended template","0","0.7029995322227478","38","yes","1024"
"0","0","0.018479475655998938","0.018479475655998938","white","yes","psycho","psycho","psycho","0","uniform","0","undefined","0","a","1","0","41","1","1","0","0","0","0","NA","41","0","41","41","0","41","1","41","41","Mon Dec  4 11:20:36 2023","A template containing a practice and an experimental phase","yes","언어학과심리실험_B조_기말과제용심리실험.osexp","E:\2023년도 1학기\언어학과심리실험","no","mono","no","18","no","black","no","no","768","psycho","38","38","0","E:\2023년도 1학기\언어학과심리실험\quickrun.csv","psycho","Lentiform Loewenfeld","3.3.14","no","계곡","natural","no-correlation","0","None","NA","n","NA","a","None","a","0.017700018361210823","NA","1744.593600044027","NA","12584.016900043935","0.017700018361210823","634.4931998755783","2","psycho","1024","2","48000","-16","experiment","999","odd","화장실","artifactual","NA","113635.145700071","24841.224600095302","24841.177500085905","NA","23094.752500066534","3028.7808999419212","24840.745799941942","NA","112919.60310004652","3075.3683999646455","114376.71969993971","114376.99760007672","15660.677100066096","113126.51959992945","NA","113740.7609000802","112907.90989995003","Extended template","0","0.7206995505839586","39","yes","1024"
"0","0","0.01842498895712197","0.01842498895712197","white","yes","psycho","psycho","psycho","0","uniform","0","undefined","0","n","1","0","42","1","1","0","0","0","0","NA","42","0","42","42","0","42","1","42","42","Mon Dec  4 11:20:36 2023","A template containing a practice and an experimental phase","yes","언어학과심리실험_B조_기말과제용심리실험.osexp","E:\2023년도 1학기\언어학과심리실험","no","mono","no","18","no","black","no","no","768","psycho","39","39","0","E:\2023년도 1학기\언어학과심리실험\quickrun.csv","psycho","Lentiform Loewenfeld","3.3.14","no","태양계","natural","inclusive","0","None","NA","n","NA","a","None","n","0.016300007700920105","NA","1744.593600044027","NA","12584.016900043935","0.016300007700920105","1126.7359999474138","2","psycho","1024","2","48000","-16","experiment","999","odd","목성","natural","NA","115199.10880015232","24841.224600095302","24841.177500085905","NA","23094.752500066534","3028.7808999419212","24840.745799941942","NA","114467.15679997578","3075.3683999646455","116432.80400009826","116433.07160004042","15660.677100066096","114691.24000007287","NA","115304.52640005387","114456.26000012271","Extended template","0","0.7369995582848787","40","yes","1024"
"0","0","0.01835852588822202","0.01835852588822202","white","yes","psycho","psycho","psycho","0","uniform","0","undefined","0","a","1","0","43","1","1","0","0","0","0","NA","43","0","43","43","0","43","1","43","43","Mon Dec  4 11:20:36 2023","A template containing a practice and an experimental phase","yes","언어학과심리실험_B조_기말과제용심리실험.osexp","E:\2023년도 1학기\언어학과심리실험","no","mono","no","18","no","black","no","no","768","psycho","40","40","0","E:\2023년도 1학기\언어학과심리실험\quickrun.csv","psycho","Lentiform Loewenfeld","3.3.14","no","도미노","artifactual","same phoneme","0","None","NA","n","NA","a","None","a","0.015700003132224083","NA","1744.593600044027","NA","12584.016900043935","0.015700003132224083","1083.1337000709027","2","psycho","1024","2","48000","-16","experiment","999","odd","도서","artifactual","NA","117237.32600011863","24841.224600095302","24841.177500085905","NA","23094.752500066534","3028.7808999419212","24840.745799941942","NA","116521.67150005698","3075.3683999646455","118428.35599998944","118428.6301000975","15660.677100066096","116728.03090000525","NA","117344.1147999838","116511.8929001037","Extended template","0","0.7526995614171028","41","yes","1024"
"0","0","0.018297605926082247","0.018297605926082247","white","yes","psycho","psycho","psycho","0","uniform","0","undefined","0","a","1","0","44","1","1","0","0","0","0","NA","44","0","44","44","0","44","1","44","44","Mon Dec  4 11:20:36 2023","A template containing a practice and an experimental phase","yes","언어학과심리실험_B조_기말과제용심리실험.osexp","E:\2023년도 1학기\언어학과심리실험","no","mono","no","18","no","black","no","no","768","psycho","41","41","0","E:\2023년도 1학기\언어학과심리실험\quickrun.csv","psycho","Lentiform Loewenfeld","3.3.14","no","바다","natural","same phoneme","0","None","NA","n","NA","a","None","a","0.015799887478351593","NA","1744.593600044027","NA","12584.016900043935","0.015799887478351593","1003.8497999776155","2","psycho","1024","2","48000","-16","experiment","999","odd","바닥","artifactual","NA","119241.60200008191","24841.224600095302","24841.177500085905","NA","23094.752500066534","3028.7808999419212","24840.745799941942","NA","118517.96790002845","3075.3683999646455","120352.47680009343","120352.75520011783","15660.677100066096","118734.68520003371","NA","119347.37670002505","118504.70299995504","Extended template","0","0.7684994488954544","42","yes","1024"
"0","0","0.01825812965804754","0.01825812965804754","white","yes","psycho","psycho","psycho","0","uniform","0","undefined","0","n","1","0","45","1","1","0","0","0","0","NA","45","0","45","45","0","45","1","45","45","Mon Dec  4 11:20:36 2023","A template containing a practice and an experimental phase","yes","언어학과심리실험_B조_기말과제용심리실험.osexp","E:\2023년도 1학기\언어학과심리실험","no","mono","no","18","no","black","no","no","768","psycho","42","42","0","E:\2023년도 1학기\언어학과심리실험\quickrun.csv","psycho","Lentiform Loewenfeld","3.3.14","no","전등","artifactual","no-correlation","0","None","NA","n","NA","a","None","n","0.016600126400589943","NA","1744.593600044027","NA","12584.016900043935","0.016600126400589943","649.0801000036299","2","psycho","1024","2","48000","-16","experiment","999","odd","소","natural","NA","121163.37680001743","24841.224600095302","24841.177500085905","NA","23094.752500066534","3028.7808999419212","24840.745799941942","NA","120439.65800013393","3075.3683999646455","121920.43399997056","121920.71600002237","15660.677100066096","120655.32939997502","NA","121270.14819998294","120428.49540011957","Extended template","0","0.7850995752960443","43","yes","1024"
"0","0","0.01823180355131626","0.01823180355131626","white","yes","psycho","psycho","psycho","0","uniform","0","undefined","0","a","1","0","46","1","1","0","0","0","0","NA","46","0","46","46","0","46","1","46","46","Mon Dec  4 11:20:36 2023","A template containing a practice and an experimental phase","yes","언어학과심리실험_B조_기말과제용심리실험.osexp","E:\2023년도 1학기\언어학과심리실험","no","mono","no","18","no","black","no","no","768","psycho","43","43","0","E:\2023년도 1학기\언어학과심리실험\quickrun.csv","psycho","Lentiform Loewenfeld","3.3.14","no","키보드","artifactual","similar-environmental","0","None","NA","n","NA","a","None","a","0.017099780961871147","NA","1744.593600044027","NA","12584.016900043935","0.017099780961871147","1110.4288999922574","2","psycho","1024","2","48000","-16","experiment","999","odd","컴퓨터","artifactual","NA","122726.92640009336","24841.224600095302","24841.177500085905","NA","23094.752500066534","3028.7808999419212","24840.745799941942","NA","122003.5395999439","3075.3683999646455","123944.93450014852","123945.22260013036","15660.677100066096","122219.08810012974","NA","122832.8108000569","121996.10049999319","Extended template","0","0.8021993562579155","44","yes","1024"
"0","0","0.01817776614593135","0.01817776614593135","white","yes","psycho","psycho","psycho","0","uniform","0","undefined","0","a","1","0","47","1","1","0","0","0","0","NA","47","0","47","47","0","47","1","47","47","Mon Dec  4 11:20:36 2023","A template containing a practice and an experimental phase","yes","언어학과심리실험_B조_기말과제용심리실험.osexp","E:\2023년도 1학기\언어학과심리실험","no","mono","no","18","no","black","no","no","768","psycho","44","44","0","E:\2023년도 1학기\언어학과심리실험\quickrun.csv","psycho","Lentiform Loewenfeld","3.3.14","no","불","natural","similar-environmental","0","None","NA","n","NA","a","None","a","0.015800120308995247","NA","1744.593600044027","NA","12584.016900043935","0.015800120308995247","675.3102000802755","2","psycho","1024","2","48000","-16","experiment","999","odd","소화기","artifactual","NA","124748.81509994157","24841.224600095302","24841.177500085905","NA","23094.752500066534","3028.7808999419212","24840.745799941942","NA","124033.2373001147","3075.3683999646455","125532.35869994387","125532.66400005668","15660.677100066096","124239.96080015786","NA","124855.92300002463","124024.67479999177","Extended template","0","0.8179994765669107","45","yes","1024"
"0","0","0.01811955387339644","0.01811955387339644","white","yes","psycho","psycho","psycho","0","uniform","0","undefined","0","a","1","0","48","1","1","0","0","0","0","NA","48","0","48","48","0","48","1","48","48","Mon Dec  4 11:20:36 2023","A template containing a practice and an experimental phase","yes","언어학과심리실험_B조_기말과제용심리실험.osexp","E:\2023년도 1학기\언어학과심리실험","no","mono","no","18","no","black","no","no","768","psycho","45","45","0","E:\2023년도 1학기\언어학과심리실험\quickrun.csv","psycho","Lentiform Loewenfeld","3.3.14","no","카메라","artifactual","inclusive","0","None","NA","n","NA","a","None","a","0.015500001609325409","NA","1744.593600044027","NA","12584.016900043935","0.015500001609325409","644.0284000709653","2","psycho","1024","2","48000","-16","experiment","999","odd","렌즈","artifactual","NA","126337.61120005511","24841.224600095302","24841.177500085905","NA","23094.752500066534","3028.7808999419212","24840.745799941942","NA","125622.17520014383","3075.3683999646455","127088.6596001219","127088.95420003682","15660.677100066096","125829.10810015164","NA","126443.19549994543","125607.83600015566","Extended template","0","0.8334994781762362","46","yes","1024"
"0","0","0.018082970277743138","0.018082970277743138","white","yes","psycho","psycho","psycho","0","uniform","0","undefined","0","a","1","0","49","1","1","0","0","0","0","NA","49","0","49","49","0","49","1","49","49","Mon Dec  4 11:20:36 2023","A template containing a practice and an experimental phase","yes","언어학과심리실험_B조_기말과제용심리실험.osexp","E:\2023년도 1학기\언어학과심리실험","no","mono","no","18","no","black","no","no","768","psycho","46","46","0","E:\2023년도 1학기\언어학과심리실험\quickrun.csv","psycho","Lentiform Loewenfeld","3.3.14","no","꽃","natural","no-correlation","0","None","NA","n","NA","a","None","a","0.01640012487769127","NA","1744.593600044027","NA","12584.016900043935","0.01640012487769127","803.3037001732737","2","psycho","1024","2","48000","-16","experiment","999","odd","경주","artifactual","NA","127893.20620009676","24841.224600095302","24841.177500085905","NA","23094.752500066534","3028.7808999419212","24840.745799941942","NA","127177.82080010511","3075.3683999646455","128804.83409995213","128805.1315001212","15660.677100066096","127384.80430003256","NA","127999.93359996006","127166.97750007734","Extended template","0","0.8498996030539274","47","yes","1024"
"0","0","0.018054158620846767","0.018054158620846767","white","yes","psycho","psycho","psycho","0","uniform","0","undefined","0","n","1","0","50","1","1","0","0","0","0","NA","50","0","50","50","0","50","1","50","50","Mon Dec  4 11:20:36 2023","A template containing a practice and an experimental phase","yes","언어학과심리실험_B조_기말과제용심리실험.osexp","E:\2023년도 1학기\언어학과심리실험","no","mono","no","18","no","black","no","no","768","psycho","47","47","0","E:\2023년도 1학기\언어학과심리실험\quickrun.csv","psycho","Lentiform Loewenfeld","3.3.14","no","경주","artifactual","no-correlation","0","None","NA","n","NA","a","None","n","0.016700010746717453","NA","1744.593600044027","NA","12584.016900043935","0.016700010746717453","634.6195000223815","2","psycho","1024","2","48000","-16","experiment","999","odd","소나무","natural","NA","129623.1219000183","24841.224600095302","24841.177500085905","NA","23094.752500066534","3028.7808999419212","24840.745799941942","NA","128908.03440008312","3075.3683999646455","130364.7489999421","130365.05230003968","15660.677100066096","129115.87919993326","NA","129728.59130008146","128892.3833000008","Extended template","0","0.8665996138006449","48","yes","1024"
"0","0","0.0180163211664375","0.0180163211664375","white","yes","psycho","psycho","psycho","0","uniform","0","undefined","0","n","1","0","51","1","1","0","0","0","0","NA","51","0","51","51","0","51","1","51","51","Mon Dec  4 11:20:36 2023","A template containing a practice and an experimental phase","yes","언어학과심리실험_B조_기말과제용심리실험.osexp","E:\2023년도 1학기\언어학과심리실험","no","mono","no","18","no","black","no","no","768","psycho","48","48","0","E:\2023년도 1학기\언어학과심리실험\quickrun.csv","psycho","Lentiform Loewenfeld","3.3.14","no","풍차","artifactual","no-correlation","0","None","NA","n","NA","a","None","n","0.016200123354792595","NA","1744.593600044027","NA","12584.016900043935","0.016200123354792595","587.0654999744147","2","psycho","1024","2","48000","-16","experiment","999","odd","흙","natural","NA","131170.6135000568","24841.224600095302","24841.177500085905","NA","23094.752500066534","3028.7808999419212","24840.745799941942","NA","130455.40330000222","3075.3683999646455","131864.42629992962","131864.73329993896","15660.677100066096","130662.41029999219","NA","131276.20399999432","130445.71260013618","Extended template","0","0.8827997371554375","49","yes","1024"
"0","0","0.017973994836211205","0.017973994836211205","white","yes","psycho","psycho","psycho","0","uniform","0","undefined","0","n","1","0","52","1","1","0","0","0","0","NA","52","0","52","52","0","52","1","52","52","Mon Dec  4 11:20:36 2023","A template containing a practice and an experimental phase","yes","언어학과심리실험_B조_기말과제용심리실험.osexp","E:\2023년도 1학기\언어학과심리실험","no","mono","no","18","no","black","no","no","768","psycho","49","49","0","E:\2023년도 1학기\언어학과심리실험\quickrun.csv","psycho","Lentiform Loewenfeld","3.3.14","no","언덕","natural","no-correlation","0","None","NA","n","NA","a","None","n","0.015900004655122757","NA","1744.593600044027","NA","12584.016900043935","0.015900004655122757","808.6248999461532","2","psycho","1024","2","48000","-16","experiment","999","odd","고양이","natural","NA","132693.07900010608","24841.224600095302","24841.177500085905","NA","23094.752500066534","3028.7808999419212","24840.745799941942","NA","131969.62460014038","3075.3683999646455","133608.5012999829","133608.82379999384","15660.677100066096","132184.91770001128","NA","132798.6137000844","131955.7312000543","Extended template","0","0.8986997418105602","50","yes","1024"
"0","0","0.017956857953001473","0.017956857953001473","white","yes","psycho","psycho","psycho","0","uniform","0","undefined","0","n","1","0","53","1","1","0","0","0","0","NA","53","0","53","53","0","53","1","53","53","Mon Dec  4 11:20:36 2023","A template containing a practice and an experimental phase","yes","언어학과심리실험_B조_기말과제용심리실험.osexp","E:\2023년도 1학기\언어학과심리실험","no","mono","no","18","no","black","no","no","768","psycho","50","50","0","E:\2023년도 1학기\언어학과심리실험\quickrun.csv","psycho","Lentiform Loewenfeld","3.3.14","no","새","natural","inclusive","0","None","NA","n","NA","a","None","n","0.0171000137925148","NA","1744.593600044027","NA","12584.016900043935","0.0171000137925148","619.646199978888","2","psycho","1024","2","48000","-16","experiment","999","odd","까치","natural","NA","134406.30939998664","24841.224600095302","24841.177500085905","NA","23094.752500066534","3028.7808999419212","24840.745799941942","NA","133691.1411001347","3075.3683999646455","135132.34360003844","135132.66030000523","15660.677100066096","133898.40400009416","NA","134511.57300011255","133684.09560015425","Extended template","0","0.915799755603075","51","yes","1024"
"0","0","0.01791730308188842","0.01791730308188842","white","yes","psycho","psycho","psycho","0","uniform","0","undefined","0","n","1","0","54","1","1","0","0","0","0","NA","54","0","54","54","0","54","1","54","54","Mon Dec  4 11:20:36 2023","A template containing a practice and an experimental phase","yes","언어학과심리실험_B조_기말과제용심리실험.osexp","E:\2023년도 1학기\언어학과심리실험","no","mono","no","18","no","black","no","no","768","psycho","51","51","0","E:\2023년도 1학기\언어학과심리실험\quickrun.csv","psycho","Lentiform Loewenfeld","3.3.14","no","전구","artifactual","similar-environmental","0","None","NA","n","NA","a","None","n","0.015900004655122757","NA","1744.593600044027","NA","12584.016900043935","0.015900004655122757","1032.5454999692738","2","psycho","1024","2","48000","-16","experiment","999","odd","빛","natural","NA","135937.3194000218","24841.224600095302","24841.177500085905","NA","23094.752500066534","3028.7808999419212","24840.745799941942","NA","135221.6334999539","3075.3683999646455","137076.4997000806","137076.82100008242","15660.677100066096","135428.42150013894","NA","136042.69829997793","135213.73630012386","Extended template","0","0.9316997602581978","52","yes","1024"
"0","0","0.017949050503238192","0.017949050503238192","white","yes","psycho","psycho","psycho","0","uniform","0","undefined","0","n","1","0","55","1","1","0","0","0","0","NA","55","0","55","55","0","55","1","55","55","Mon Dec  4 11:20:36 2023","A template containing a practice and an experimental phase","yes","언어학과심리실험_B조_기말과제용심리실험.osexp","E:\2023년도 1학기\언어학과심리실험","no","mono","no","18","no","black","no","no","768","psycho","52","52","0","E:\2023년도 1학기\언어학과심리실험\quickrun.csv","psycho","Lentiform Loewenfeld","3.3.14","no","산","natural","similar-environmental","0","None","NA","n","NA","a","None","n","0.0195999164134264","NA","1744.593600044027","NA","12584.016900043935","0.0195999164134264","587.7855001017451","2","psycho","1024","2","48000","-16","experiment","999","odd","계곡","natural","NA","137881.74590002745","24841.224600095302","24841.177500085905","NA","23094.752500066534","3028.7808999419212","24840.745799941942","NA","137159.9485001061","3075.3683999646455","138580.53490007296","138580.86430002004","15660.677100066096","137375.56209997274","NA","137991.4679999929","137152.54039992578","Extended template","0","0.9512996766716242","53","yes","1024"
"0","0","0.017912954919868045","0.017912954919868045","white","yes","psycho","psycho","psycho","0","uniform","0","undefined","0","n","1","0","56","1","1","0","0","0","0","NA","56","0","56","56","0","56","1","56","56","Mon Dec  4 11:20:36 2023","A template containing a practice and an experimental phase","yes","언어학과심리실험_B조_기말과제용심리실험.osexp","E:\2023년도 1학기\언어학과심리실험","no","mono","no","18","no","black","no","no","768","psycho","53","53","0","E:\2023년도 1학기\언어학과심리실험\quickrun.csv","psycho","Lentiform Loewenfeld","3.3.14","no","우산","artifactual","similar-environmental","0","None","NA","n","NA","a","None","n","0.015999889001250267","NA","1744.593600044027","NA","12584.016900043935","0.015999889001250267","523.9856000989676","2","psycho","1024","2","48000","-16","experiment","999","odd","비","natural","NA","139397.9084000457","24841.224600095302","24841.177500085905","NA","23094.752500066534","3028.7808999419212","24840.745799941942","NA","138673.79219993018","3075.3683999646455","140028.47240003757","140028.80239998922","15660.677100066096","138889.70610010438","NA","139503.25650000013","138659.45750009269","Extended template","0","0.9672995656728745","54","yes","1024"
"0","0","0.017889085310426624","0.017889085310426624","white","yes","psycho","psycho","psycho","0","uniform","0","undefined","0","n","1","0","57","1","1","0","0","0","0","NA","57","0","57","57","0","57","1","57","57","Mon Dec  4 11:20:36 2023","A template containing a practice and an experimental phase","yes","언어학과심리실험_B조_기말과제용심리실험.osexp","E:\2023년도 1학기\언어학과심리실험","no","mono","no","18","no","black","no","no","768","psycho","54","54","0","E:\2023년도 1학기\언어학과심리실험\quickrun.csv","psycho","Lentiform Loewenfeld","3.3.14","no","세금","artifactual","same phoneme","0","None","NA","n","NA","a","None","n","0.016600126400589943","NA","1744.593600044027","NA","12584.016900043935","0.016600126400589943","735.6086999643594","2","psycho","1024","2","48000","-16","experiment","999","odd","세포","natural","NA","140828.63899995573","24841.224600095302","24841.177500085905","NA","23094.752500066534","3028.7808999419212","24840.745799941942","NA","140113.02569997497","3075.3683999646455","141672.76119999588","141673.14080009237","15660.677100066096","140320.07050001994","NA","140935.6517000124","140105.89920007624","Extended template","0","0.9838996920734644","55","yes","1024"
"0","0","0.017855349662048475","0.017855349662048475","white","yes","psycho","psycho","psycho","0","uniform","0","undefined","0","a","1","0","58","1","1","0","0","0","0","NA","58","0","58","58","0","58","1","58","58","Mon Dec  4 11:20:36 2023","A template containing a practice and an experimental phase","yes","언어학과심리실험_B조_기말과제용심리실험.osexp","E:\2023년도 1학기\언어학과심리실험","no","mono","no","18","no","black","no","no","768","psycho","55","55","0","E:\2023년도 1학기\언어학과심리실험\quickrun.csv","psycho","Lentiform Loewenfeld","3.3.14","no","로봇","artifactual","same phoneme","0","None","NA","n","NA","a","None","a","0.015999889001250267","NA","1744.593600044027","NA","12584.016900043935","0.015999889001250267","610.5235000140965","2","psycho","1024","2","48000","-16","experiment","999","odd","로켓","artifactual","NA","142475.66030011512","24841.224600095302","24841.177500085905","NA","23094.752500066534","3028.7808999419212","24840.745799941942","NA","141760.09769993834","3075.3683999646455","143192.8052001167","143193.14330001362","15660.677100066096","141966.82730014436","NA","142580.69490012713","141748.4697001055","Extended template","0","0.9998995810747147","56","yes","1024"
"0","0","0.017824554162328702","0.017824554162328702","white","yes","psycho","psycho","psycho","0","uniform","0","undefined","0","x","0","0","59","1","1","0","0","0","0","NA","59","0","59","59","0","59","1","59","59","Mon Dec  4 11:20:36 2023","A template containing a practice and an experimental phase","yes","언어학과심리실험_B조_기말과제용심리실험.osexp","E:\2023년도 1학기\언어학과심리실험","no","mono","no","18","no","black","no","no","768","psycho","56","56","0","E:\2023년도 1학기\언어학과심리실험\quickrun.csv","psycho","Lentiform Loewenfeld","3.3.14","no","폭풍","natural","non-word","0","None","NA","n","NA","a","None","a","0.01610000617802143","NA","1744.593600044027","NA","12584.016900043935","0.01610000617802143","1568.0336002260447","2","psycho","1024","2","48000","-16","experiment","999","odd","섬강","non-word","NA","144005.8695001062","24841.224600095302","24841.177500085905","NA","23094.752500066534","3028.7808999419212","24840.745799941942","NA","143282.4651999399","3075.3683999646455","145680.6638999842","145681.00950005464","15660.677100066096","143498.1633001007","NA","144111.21589993127","143269.94360005483","Extended template","0","1.015999587252736","57","yes","1024"
"0","0","0.017796546734612565","0.017796546734612565","white","yes","psycho","psycho","psycho","0","uniform","0","undefined","0","a","1","0","60","1","1","0","0","0","0","NA","60","0","60","60","0","60","1","60","60","Mon Dec  4 11:20:36 2023","A template containing a practice and an experimental phase","yes","언어학과심리실험_B조_기말과제용심리실험.osexp","E:\2023년도 1학기\언어학과심리실험","no","mono","no","18","no","black","no","no","768","psycho","57","57","0","E:\2023년도 1학기\언어학과심리실험\quickrun.csv","psycho","Lentiform Loewenfeld","3.3.14","no","산","natural","similar-environmental","0","None","NA","n","NA","a","None","a","0.016200123354792595","NA","1744.593600044027","NA","12584.016900043935","0.016200123354792595","1602.9535001143813","2","psycho","1024","2","48000","-16","experiment","999","odd","오두막","artifactual","NA","146485.1323000621","24841.224600095302","24841.177500085905","NA","23094.752500066534","3028.7808999419212","24840.745799941942","NA","145769.67580011114","3075.3683999646455","148197.04100000672","148197.40170007572","15660.677100066096","145976.5280999709","NA","146592.24379993975","145761.400999967","Extended template","0","1.0321997106075287","58","yes","1024"
"0","0","0.01777626842386642","0.01777626842386642","white","yes","psycho","psycho","psycho","0","uniform","0","undefined","0","n","1","0","61","1","1","0","0","0","0","NA","61","0","61","61","0","61","1","61","61","Mon Dec  4 11:20:36 2023","A template containing a practice and an experimental phase","yes","언어학과심리실험_B조_기말과제용심리실험.osexp","E:\2023년도 1학기\언어학과심리실험","no","mono","no","18","no","black","no","no","768","psycho","58","58","0","E:\2023년도 1학기\언어학과심리실험\quickrun.csv","psycho","Lentiform Loewenfeld","3.3.14","no","불","natural","no-correlation","0","None","NA","n","NA","a","None","n","0.016600126400589943","NA","1744.593600044027","NA","12584.016900043935","0.016600126400589943","752.0049000158906","2","psycho","1024","2","48000","-16","experiment","999","odd","물고기","natural","NA","149005.6162001565","24841.224600095302","24841.177500085905","NA","23094.752500066534","3028.7808999419212","24840.745799941942","NA","148290.24760005996","3075.3683999646455","149864.71029999666","149865.085599944","15660.677100066096","148496.9496000558","NA","149111.1715999432","148275.33650002442","Extended template","0","1.0487998370081186","59","yes","1024"
"0","0","0.017773328969875973","0.017773328969875973","white","yes","psycho","psycho","psycho","0","uniform","0","undefined","0","a","1","0","62","1","1","0","0","0","0","NA","62","0","62","62","0","62","1","62","62","Mon Dec  4 11:20:36 2023","A template containing a practice and an experimental phase","yes","언어학과심리실험_B조_기말과제용심리실험.osexp","E:\2023년도 1학기\언어학과심리실험","no","mono","no","18","no","black","no","no","768","psycho","59","59","0","E:\2023년도 1학기\언어학과심리실험\quickrun.csv","psycho","Lentiform Loewenfeld","3.3.14","no","호수","natural","no-correlation","0","None","NA","n","NA","a","None","a","0.01759990118443966","NA","1744.593600044027","NA","12584.016900043935","0.01759990118443966","708.1216999795288","2","psycho","1024","2","48000","-16","experiment","999","odd","대학교","artifactual","NA","150669.37010013498","24841.224600095302","24841.177500085905","NA","23094.752500066534","3028.7808999419212","24840.745799941942","NA","149953.9717999287","3075.3683999646455","151484.86980004236","151485.22919998504","15660.677100066096","150160.90509993955","NA","150775.1164000947","149941.4399000816","Extended template","0","1.0663997381925583","60","yes","1024"
"0","0","0.017754092323975484","0.017754092323975484","white","yes","psycho","psycho","psycho","0","uniform","0","undefined","0","n","1","0","63","1","1","0","0","0","0","NA","63","0","63","63","0","63","1","63","63","Mon Dec  4 11:20:36 2023","A template containing a practice and an experimental phase","yes","언어학과심리실험_B조_기말과제용심리실험.osexp","E:\2023년도 1학기\언어학과심리실험","no","mono","no","18","no","black","no","no","768","psycho","60","60","0","E:\2023년도 1학기\언어학과심리실험\quickrun.csv","psycho","Lentiform Loewenfeld","3.3.14","no","호수","natural","no-correlation","0","None","NA","n","NA","a","None","n","0.01659989356994629","NA","1744.593600044027","NA","12584.016900043935","0.01659989356994629","585.75199986808","2","psycho","1024","2","48000","-16","experiment","999","odd","소나무","natural","NA","152291.3335999474","24841.224600095302","24841.177500085905","NA","23094.752500066534","3028.7808999419212","24840.745799941942","NA","151575.8998999372","3075.3683999646455","152984.4317000825","152984.79670006782","15660.677100066096","151783.75330008566","NA","152397.4236000795","151561.47980014794","Extended template","0","1.0829996317625046","61","yes","1024"
"0","0","0.017714510191111796","0.017714510191111796","white","yes","psycho","psycho","psycho","0","uniform","0","undefined","0","n","1","0","64","1","1","0","0","0","0","NA","64","0","64","64","0","64","1","64","64","Mon Dec  4 11:20:36 2023","A template containing a practice and an experimental phase","yes","언어학과심리실험_B조_기말과제용심리실험.osexp","E:\2023년도 1학기\언어학과심리실험","no","mono","no","18","no","black","no","no","768","psycho","61","61","0","E:\2023년도 1학기\언어학과심리실험\quickrun.csv","psycho","Lentiform Loewenfeld","3.3.14","no","상새고","non-word","non-word","0","None","NA","n","NA","a","None","n","0.015300000086426735","NA","1744.593600044027","NA","12584.016900043935","0.015300000086426735","775.8846001233906","2","psycho","1024","2","48000","-16","experiment","999","odd","나뭇잎","natural","NA","153797.42780001834","24841.224600095302","24841.177500085905","NA","23094.752500066534","3028.7808999419212","24840.745799941942","NA","153074.9460000079","3075.3683999646455","154680.48400012776","154680.8507000096","15660.677100066096","153282.1816999931","NA","153903.32629997283","153067.58940010332","Extended template","0","1.0982996318489313","62","yes","1024"
"0","0","0.017706341745834502","0.017706341745834502","white","yes","psycho","psycho","psycho","0","uniform","0","undefined","0","a","1","0","65","1","1","0","0","0","0","NA","65","0","65","65","0","65","1","65","65","Mon Dec  4 11:20:36 2023","A template containing a practice and an experimental phase","yes","언어학과심리실험_B조_기말과제용심리실험.osexp","E:\2023년도 1학기\언어학과심리실험","no","mono","no","18","no","black","no","no","768","psycho","62","62","0","E:\2023년도 1학기\언어학과심리실험\quickrun.csv","psycho","Lentiform Loewenfeld","3.3.14","no","종이","artifactual","similar-environmental","0","None","NA","n","NA","a","None","a","0.01719989813864231","NA","1744.593600044027","NA","12584.016900043935","0.01719989813864231","735.3350999765098","2","psycho","1024","2","48000","-16","experiment","999","odd","프린터","artifactual","NA","155485.89200014248","24841.224600095302","24841.177500085905","NA","23094.752500066534","3028.7808999419212","24840.745799941942","NA","154770.53109998815","3075.3683999646455","156328.3625000622","156328.73890013434","15660.677100066096","154978.16499997862","NA","155591.8233001139","154756.66930014268","Extended template","0","1.1154995299875736","63","yes","1024"
"0","0","0.01767342837410979","0.01767342837410979","white","yes","psycho","psycho","psycho","0","uniform","0","undefined","0","a","1","0","66","1","1","0","0","0","0","NA","66","0","66","66","0","66","1","66","66","Mon Dec  4 11:20:36 2023","A template containing a practice and an experimental phase","yes","언어학과심리실험_B조_기말과제용심리실험.osexp","E:\2023년도 1학기\언어학과심리실험","no","mono","no","18","no","black","no","no","768","psycho","63","63","0","E:\2023년도 1학기\언어학과심리실험\quickrun.csv","psycho","Lentiform Loewenfeld","3.3.14","no","프린터","artifactual","similar-environmental","0","None","NA","n","NA","a","None","a","0.015599885955452919","NA","1744.593600044027","NA","12584.016900043935","0.015599885955452919","840.9709001425654","2","psycho","1024","2","48000","-16","experiment","999","odd","종이","artifactual","NA","157132.92520004325","24841.224600095302","24841.177500085905","NA","23094.752500066534","3028.7808999419212","24840.745799941942","NA","156417.3399999272","3075.3683999646455","158080.83200012334","158081.20999997482","15660.677100066096","156623.77840001136","NA","157238.24879992753","156404.0713000577","Extended template","0","1.1310994159430265","64","yes","1024"
"0","0","0.01765844913629385","0.01765844913629385","white","yes","psycho","psycho","psycho","0","uniform","0","undefined","0","n","1","0","67","1","1","0","0","0","0","NA","67","0","67","67","0","67","1","67","67","Mon Dec  4 11:20:36 2023","A template containing a practice and an experimental phase","yes","언어학과심리실험_B조_기말과제용심리실험.osexp","E:\2023년도 1학기\언어학과심리실험","no","mono","no","18","no","black","no","no","768","psycho","64","64","0","E:\2023년도 1학기\언어학과심리실험\quickrun.csv","psycho","Lentiform Loewenfeld","3.3.14","no","물고기","natural","inclusive","0","None","NA","n","NA","a","None","n","0.0166997779160738","NA","1744.593600044027","NA","12584.016900043935","0.0166997779160738","649.3206000886858","2","psycho","1024","2","48000","-16","experiment","999","odd","연어","natural","NA","158896.66460012086","24841.224600095302","24841.177500085905","NA","23094.752500066534","3028.7808999419212","24840.745799941942","NA","158181.0165999923","3075.3683999646455","159652.43210014887","159652.80989999883","15660.677100066096","158388.04930006154","NA","159001.88310001977","158172.0797000453","Extended template","0","1.1477991938591003","65","yes","1024"
"0","0","0.017648474595537693","0.017648474595537693","white","yes","psycho","psycho","psycho","0","uniform","0","undefined","0","a","1","0","68","1","1","0","0","0","0","NA","68","0","68","68","0","68","1","68","68","Mon Dec  4 11:20:36 2023","A template containing a practice and an experimental phase","yes","언어학과심리실험_B조_기말과제용심리실험.osexp","E:\2023년도 1학기\언어학과심리실험","no","mono","no","18","no","black","no","no","768","psycho","65","65","0","E:\2023년도 1학기\언어학과심리실험\quickrun.csv","psycho","Lentiform Loewenfeld","3.3.14","no","시","artifactual","similar-environmental","0","None","NA","n","NA","a","None","a","0.01700012944638729","NA","1744.593600044027","NA","12584.016900043935","0.01700012944638729","1066.272099968046","2","psycho","1024","2","48000","-16","experiment","999","odd","소설","artifactual","NA","160451.69360004365","24841.224600095302","24841.177500085905","NA","23094.752500066534","3028.7808999419212","24840.745799941942","NA","159736.4654999692","3075.3683999646455","161624.86490001902","161625.25129993446","15660.677100066096","159943.5626999475","NA","160556.99740001","159727.348000044","Extended template","0","1.1647993233054876","66","yes","1024"
"0","0","0.017891036791365538","0.017891036791365538","white","yes","psycho","psycho","psycho","0","uniform","0","undefined","0","n","1","0","69","1","1","0","0","0","0","NA","69","0","69","69","0","69","1","69","69","Mon Dec  4 11:20:36 2023","A template containing a practice and an experimental phase","yes","언어학과심리실험_B조_기말과제용심리실험.osexp","E:\2023년도 1학기\언어학과심리실험","no","mono","no","18","no","black","no","no","768","psycho","66","66","0","E:\2023년도 1학기\언어학과심리실험\quickrun.csv","psycho","Lentiform Loewenfeld","3.3.14","no","장슈","non-word","non-word","0","None","NA","n","NA","a","None","n","0.03390014171600342","NA","1744.593600044027","NA","12584.016900043935","0.03390014171600342","681.4427999779582","2","psycho","1024","2","48000","-16","experiment","999","odd","다람쥐","natural","NA","162432.14370007627","24841.224600095302","24841.177500085905","NA","23094.752500066534","3028.7808999419212","24840.745799941942","NA","161716.47490002215","3075.3683999646455","163221.12130001187","163221.65290010162","15660.677100066096","161923.8754999824","NA","162537.76590013877","161704.11280007102","Extended template","0","1.198699465021491","67","yes","1024"
"0","0","0.01787499401389676","0.01787499401389676","white","yes","psycho","psycho","psycho","0","uniform","0","undefined","0","a","1","0","70","1","1","0","0","0","0","NA","70","0","70","70","0","70","1","70","70","Mon Dec  4 11:20:36 2023","A template containing a practice and an experimental phase","yes","언어학과심리실험_B조_기말과제용심리실험.osexp","E:\2023년도 1학기\언어학과심리실험","no","mono","no","18","no","black","no","no","768","psycho","67","67","0","E:\2023년도 1학기\언어학과심리실험\quickrun.csv","psycho","Lentiform Loewenfeld","3.3.14","no","눈","natural","similar-environmental","0","None","NA","n","NA","a","None","a","0.016800127923488617","NA","1744.593600044027","NA","12584.016900043935","0.016800127923488617","588.5065998882055","2","psycho","1024","2","48000","-16","experiment","999","odd","스키","artifactual","NA","164037.19669999555","24841.224600095302","24841.177500085905","NA","23094.752500066534","3028.7808999419212","24840.745799941942","NA","163313.90479998663","3075.3683999646455","164732.44239995256","164733.32639993168","15660.677100066096","163529.10159993917","NA","164142.6951000467","163302.90869995952","Extended template","0","1.2154995929449797","68","yes","1024"
"0","0","0.017872458134872326","0.017872458134872326","white","yes","psycho","psycho","psycho","0","uniform","0","undefined","0","n","1","0","71","1","1","0","0","0","0","NA","71","0","71","71","0","71","1","71","71","Mon Dec  4 11:20:36 2023","A template containing a practice and an experimental phase","yes","언어학과심리실험_B조_기말과제용심리실험.osexp","E:\2023년도 1학기\언어학과심리실험","no","mono","no","18","no","black","no","no","768","psycho","68","68","0","E:\2023년도 1학기\언어학과심리실험\quickrun.csv","psycho","Lentiform Loewenfeld","3.3.14","no","패딩","artifactual","similar-environmental","0","None","NA","n","NA","a","None","n","0.017700018361210823","NA","1744.593600044027","NA","12584.016900043935","0.017700018361210823","939.1262999270111","2","psycho","1024","2","48000","-16","experiment","999","odd","겨울","natural","NA","165534.38770002685","24841.224600095302","24841.177500085905","NA","23094.752500066534","3028.7808999419212","24840.745799941942","NA","164819.15850006044","3075.3683999646455","166585.26490000077","166585.67119995132","15660.677100066096","165028.07629993185","NA","165644.14470014162","164811.87140010297","Extended template","0","1.2331996113061905","69","yes","1024"
"0","0","0.01783713897956269","0.01783713897956269","white","yes","psycho","psycho","psycho","0","uniform","0","undefined","0","n","1","0","72","1","1","0","0","0","0","NA","72","0","72","72","0","72","1","72","72","Mon Dec  4 11:20:36 2023","A template containing a practice and an experimental phase","yes","언어학과심리실험_B조_기말과제용심리실험.osexp","E:\2023년도 1학기\언어학과심리실험","no","mono","no","18","no","black","no","no","768","psycho","69","69","0","E:\2023년도 1학기\언어학과심리실험\quickrun.csv","psycho","Lentiform Loewenfeld","3.3.14","no","오일","natural","same phoneme","0","None","NA","n","NA","a","None","n","0.015400117263197899","NA","1744.593600044027","NA","12584.016900043935","0.015400117263197899","1151.753099868074","2","psycho","1024","2","48000","-16","experiment","999","odd","오리","natural","NA","167397.86899997853","24841.224600095302","24841.177500085905","NA","23094.752500066534","3028.7808999419212","24840.745799941942","NA","166674.34930009767","3075.3683999646455","168656.9479999598","168657.34859998338","15660.677100066096","166889.7883000318","NA","167503.44950007275","166662.30880003422","Extended template","0","1.2485997285693884","70","yes","1024"
"0","0","0.017814079142162497","0.017814079142162497","white","yes","psycho","psycho","psycho","0","uniform","0","undefined","0","n","1","0","73","1","1","0","0","0","0","NA","73","0","73","73","0","73","1","73","73","Mon Dec  4 11:20:36 2023","A template containing a practice and an experimental phase","yes","언어학과심리실험_B조_기말과제용심리실험.osexp","E:\2023년도 1학기\언어학과심리실험","no","mono","no","18","no","black","no","no","768","psycho","70","70","0","E:\2023년도 1학기\언어학과심리실험\quickrun.csv","psycho","Lentiform Loewenfeld","3.3.14","no","항구","artifactual","similar-environmental","0","None","NA","n","NA","a","None","n","0.01619989052414894","NA","1744.593600044027","NA","12584.016900043935","0.01619989052414894","647.7138998452574","2","psycho","1024","2","48000","-16","experiment","999","odd","바다","natural","NA","169469.53570004553","24841.224600095302","24841.177500085905","NA","23094.752500066534","3028.7808999419212","24840.745799941942","NA","168745.31180015765","3075.3683999646455","170224.6441000607","170225.05320003256","15660.677100066096","168961.53159998357","NA","169575.37550013512","168736.61000002176","Extended template","0","1.2647996190935373","71","yes","1024"
"0","0","0.017793050372145243","0.017793050372145243","white","yes","psycho","psycho","psycho","0","uniform","0","undefined","0","a","1","0","74","1","1","0","0","0","0","NA","74","0","74","74","0","74","1","74","74","Mon Dec  4 11:20:36 2023","A template containing a practice and an experimental phase","yes","언어학과심리실험_B조_기말과제용심리실험.osexp","E:\2023년도 1학기\언어학과심리실험","no","mono","no","18","no","black","no","no","768","psycho","71","71","0","E:\2023년도 1학기\언어학과심리실험\quickrun.csv","psycho","Lentiform Loewenfeld","3.3.14","no","성적표","artifactual","same phoneme","0","None","NA","n","NA","a","None","a","0.016300007700920105","NA","1744.593600044027","NA","12584.016900043935","0.016300007700920105","626.4782000798732","2","psycho","1024","2","48000","-16","experiment","999","odd","성냥","artifactual","NA","171041.3542999886","24841.224600095302","24841.177500085905","NA","23094.752500066534","3028.7808999419212","24840.745799941942","NA","170326.01840002462","3075.3683999646455","171776.48380002938","171776.8928001169","15660.677100066096","170534.58259999752","NA","171148.71810004115","170314.08499996178","Extended template","0","1.2810996267944574","72","yes","1024"
"0","0","0.017779448694766383","0.017779448694766383","white","yes","psycho","psycho","psycho","0","uniform","0","undefined","0","n","1","0","75","1","1","0","0","0","0","NA","75","0","75","75","0","75","1","75","75","Mon Dec  4 11:20:36 2023","A template containing a practice and an experimental phase","yes","언어학과심리실험_B조_기말과제용심리실험.osexp","E:\2023년도 1학기\언어학과심리실험","no","mono","no","18","no","black","no","no","768","psycho","72","72","0","E:\2023년도 1학기\언어학과심리실험\quickrun.csv","psycho","Lentiform Loewenfeld","3.3.14","no","바닥","artifactual","same phoneme","0","None","NA","n","NA","a","None","n","0.016800127923488617","NA","1744.593600044027","NA","12584.016900043935","0.016800127923488617","785.0858999881893","2","psycho","1024","2","48000","-16","experiment","999","odd","바다","natural","NA","172580.36680007353","24841.224600095302","24841.177500085905","NA","23094.752500066534","3028.7808999419212","24840.745799941942","NA","171865.31989998184","3075.3683999646455","173472.89109998383","173473.31249993294","15660.677100066096","172072.40599999204","NA","172686.14060012624","171853.86419994757","Extended template","0","1.297899754717946","73","yes","1024"
"0","0","0.0177783753118805","0.0177783753118805","white","yes","psycho","psycho","psycho","0","uniform","0","undefined","0","n","1","0","76","1","1","0","0","0","0","NA","76","0","76","76","0","76","1","76","76","Mon Dec  4 11:20:36 2023","A template containing a practice and an experimental phase","yes","언어학과심리실험_B조_기말과제용심리실험.osexp","E:\2023년도 1학기\언어학과심리실험","no","mono","no","18","no","black","no","no","768","psycho","73","73","0","E:\2023년도 1학기\언어학과심리실험\quickrun.csv","psycho","Lentiform Loewenfeld","3.3.14","no","소방서","artifactual","same phoneme","0","None","NA","n","NA","a","None","n","0.017700018361210823","NA","1744.593600044027","NA","12584.016900043935","0.017700018361210823","562.8444000612944","2","psycho","1024","2","48000","-16","experiment","999","odd","소나무","natural","NA","174277.607700089","24841.224600095302","24841.177500085905","NA","23094.752500066534","3028.7808999419212","24840.745799941942","NA","173561.91719998606","3075.3683999646455","174948.83040012792","174949.2506000679","15660.677100066096","173768.83980003186","NA","174384.3364000786","173551.22040002607","Extended template","0","1.3155997730791569","74","yes","1024"
"0","0","0.017770662282903988","0.017770662282903988","white","yes","psycho","psycho","psycho","0","uniform","0","undefined","0","n","1","0","77","1","1","0","0","0","0","NA","77","0","77","77","0","77","1","77","77","Mon Dec  4 11:20:36 2023","A template containing a practice and an experimental phase","yes","언어학과심리실험_B조_기말과제용심리실험.osexp","E:\2023년도 1학기\언어학과심리실험","no","mono","no","18","no","black","no","no","768","psycho","74","74","0","E:\2023년도 1학기\언어학과심리실험\quickrun.csv","psycho","Lentiform Loewenfeld","3.3.14","no","해마","natural","same phoneme","0","None","NA","n","NA","a","None","n","0.01719989813864231","NA","1744.593600044027","NA","12584.016900043935","0.01719989813864231","678.2877000514418","2","psycho","1024","2","48000","-16","experiment","999","odd","해질녘","natural","NA","175750.4118999932","24841.224600095302","24841.177500085905","NA","23094.752500066534","3028.7808999419212","24840.745799941942","NA","175034.45060015656","3075.3683999646455","176536.47330007516","176536.90770012327","15660.677100066096","175241.74259998836","NA","175856.89610010013","175026.20580000803","Extended template","0","1.3327996712177992","75","yes","1024"
"0","0","0.01777236435660406","0.01777236435660406","white","yes","psycho","psycho","psycho","0","uniform","0","undefined","0","n","1","0","78","1","1","0","0","0","0","NA","78","0","78","78","0","78","1","78","78","Mon Dec  4 11:20:36 2023","A template containing a practice and an experimental phase","yes","언어학과심리실험_B조_기말과제용심리실험.osexp","E:\2023년도 1학기\언어학과심리실험","no","mono","no","18","no","black","no","no","768","psycho","75","75","0","E:\2023년도 1학기\언어학과심리실험\quickrun.csv","psycho","Lentiform Loewenfeld","3.3.14","no","해질녘","natural","same phoneme","0","None","NA","n","NA","a","None","n","0.017900019884109497","NA","1744.593600044027","NA","12584.016900043935","0.017900019884109497","593.6284000054002","2","psycho","1024","2","48000","-16","experiment","999","odd","해마","natural","NA","177347.40069997497","24841.224600095302","24841.177500085905","NA","23094.752500066534","3028.7808999419212","24840.745799941942","NA","176623.7246999517","3075.3683999646455","178049.33009995148","178049.76710001938","15660.677100066096","176830.9873000253","NA","177453.9153999649","176613.78860007972","Extended template","0","1.3506996911019087","76","yes","1024"
"0","0","0.017753242841595178","0.017753242841595178","white","yes","psycho","psycho","psycho","0","uniform","0","undefined","0","a","1","0","79","1","1","0","0","0","0","NA","79","0","79","79","0","79","1","79","79","Mon Dec  4 11:20:36 2023","A template containing a practice and an experimental phase","yes","언어학과심리실험_B조_기말과제용심리실험.osexp","E:\2023년도 1학기\언어학과심리실험","no","mono","no","18","no","black","no","no","768","psycho","76","76","0","E:\2023년도 1학기\언어학과심리실험\quickrun.csv","psycho","Lentiform Loewenfeld","3.3.14","no","전기","natural","similar-environmental","0","None","NA","n","NA","a","None","a","0.016300007700920105","NA","1744.593600044027","NA","12584.016900043935","0.016300007700920105","703.4850001800805","2","psycho","1024","2","48000","-16","experiment","999","odd","전선","artifactual","NA","178878.0950999353","24841.224600095302","24841.177500085905","NA","23094.752500066534","3028.7808999419212","24840.745799941942","NA","178145.9473001305","3075.3683999646455","179688.5228001047","179688.95590002649","15660.677100066096","178362.68060002476","NA","178983.69939997792","178129.0474999696","Extended template","0","1.3669996988028288","77","yes","1024"
"0","0","0.01773717574393138","0.01773717574393138","white","yes","psycho","psycho","psycho","0","uniform","0","undefined","0","n","1","0","80","1","1","0","0","0","0","NA","80","0","80","80","0","80","1","80","80","Mon Dec  4 11:20:36 2023","A template containing a practice and an experimental phase","yes","언어학과심리실험_B조_기말과제용심리실험.osexp","E:\2023년도 1학기\언어학과심리실험","no","mono","no","18","no","black","no","no","768","psycho","77","77","0","E:\2023년도 1학기\언어학과심리실험\quickrun.csv","psycho","Lentiform Loewenfeld","3.3.14","no","얼음","natural","no-correlation","0","None","NA","n","NA","a","None","n","0.01650000922381878","NA","1744.593600044027","NA","12584.016900043935","0.01650000922381878","686.4658000413328","2","psycho","1024","2","48000","-16","experiment","999","odd","돌","natural","NA","180491.29380006343","24841.224600095302","24841.177500085905","NA","23094.752500066534","3028.7808999419212","24840.745799941942","NA","179776.22910006903","3075.3683999646455","181284.94959999807","181285.3890999686","15660.677100066096","179983.57670009136","NA","180596.76970005967","179765.82349999808","Extended template","0","1.3834997080266476","78","yes","1024"
"0","0","0.017722782714268828","0.017722782714268828","white","yes","psycho","psycho","psycho","0","uniform","0","undefined","0","a","1","0","81","1","1","0","0","0","0","NA","81","0","81","81","0","81","1","81","81","Mon Dec  4 11:20:36 2023","A template containing a practice and an experimental phase","yes","언어학과심리실험_B조_기말과제용심리실험.osexp","E:\2023년도 1학기\언어학과심리실험","no","mono","no","18","no","black","no","no","768","psycho","78","78","0","E:\2023년도 1학기\언어학과심리실험\quickrun.csv","psycho","Lentiform Loewenfeld","3.3.14","no","화분","artifactual","no-correlation","0","None","NA","n","NA","a","None","a","0.016600126400589943","NA","1744.593600044027","NA","12584.016900043935","0.016600126400589943","639.1139000188559","2","psycho","1024","2","48000","-16","experiment","999","odd","신발","artifactual","NA","182105.42250005528","24841.224600095302","24841.177500085905","NA","23094.752500066534","3028.7808999419212","24840.745799941942","NA","181386.05650002137","3075.3683999646455","182852.65449993312","182853.0983000528","15660.677100066096","181593.28040014952","NA","182212.18369994313","181367.5236001145","Extended template","0","1.4000998344272375","79","yes","1024"
"0","0","0.01770499802660197","0.01770499802660197","white","yes","psycho","psycho","psycho","0","uniform","0","undefined","0","a","1","0","82","1","1","0","0","0","0","NA","82","0","82","82","0","82","1","82","82","Mon Dec  4 11:20:36 2023","A template containing a practice and an experimental phase","yes","언어학과심리실험_B조_기말과제용심리실험.osexp","E:\2023년도 1학기\언어학과심리실험","no","mono","no","18","no","black","no","no","768","psycho","79","79","0","E:\2023년도 1학기\언어학과심리실험\quickrun.csv","psycho","Lentiform Loewenfeld","3.3.14","no","바다","natural","same phoneme","0","None","NA","n","NA","a","None","a","0.016300007700920105","NA","1744.593600044027","NA","12584.016900043935","0.016300007700920105","688.5574001353234","2","psycho","1024","2","48000","-16","experiment","999","odd","바구니","artifactual","NA","183660.78549996018","24841.224600095302","24841.177500085905","NA","23094.752500066534","3028.7808999419212","24840.745799941942","NA","182937.0647999458","3075.3683999646455","184456.49050013162","184456.9348001387","15660.677100066096","183153.08429999277","NA","183766.57199999318","182927.49310005456","Extended template","0","1.4163998421281576","80","yes","1024"
"0","0","0.017683947297893923","0.017683947297893923","white","yes","psycho","psycho","psycho","0","uniform","0","undefined","0","a","1","0","83","1","1","0","0","0","0","NA","83","0","83","83","0","83","1","83","83","Mon Dec  4 11:20:36 2023","A template containing a practice and an experimental phase","yes","언어학과심리실험_B조_기말과제용심리실험.osexp","E:\2023년도 1학기\언어학과심리실험","no","mono","no","18","no","black","no","no","768","psycho","80","80","0","E:\2023년도 1학기\언어학과심리실험\quickrun.csv","psycho","Lentiform Loewenfeld","3.3.14","no","옷","artifactual","inclusive","0","None","NA","n","NA","a","None","a","0.015999889001250267","NA","1744.593600044027","NA","12584.016900043935","0.015999889001250267","495.3309998381883","2","psycho","1024","2","48000","-16","experiment","999","odd","코트","artifactual","NA","185266.0356000997","24841.224600095302","24841.177500085905","NA","23094.752500066534","3028.7808999419212","24840.745799941942","NA","184542.4349999521","3075.3683999646455","185868.43130015768","185868.8839999959","15660.677100066096","184757.98130012117","NA","185371.7921001371","184532.67999994569","Extended template","0","1.4323997311294079","81","yes","1024"
