"acc","accuracy","average_response_time","avg_rt","background","bidi","canvas_backend","clock_backend","color_backend","compensation","coordinates","correct","correct_instructions","correct_keyboard_response","correct_response","correct_target","count_about_this_template","count_blank","count_block_loop","count_block_sequence","count_end_of_experiment","count_end_of_practice","count_experiment","count_experimental_loop","count_feedback","count_fixation","count_instructions","count_keyboard_response","count_logger","count_practice_loop","count_prime","count_reset_feedback","count_target","count_trial_sequence","datetime","description","disable_garbage_collection","experiment_file","experiment_path","font_bold","font_family","font_italic","font_size","font_underline","foreground","form_clicks","fullscreen","height","keyboard_backend","live_row","live_row_block_loop","live_row_practice_loop","logfile","mouse_backend","opensesame_codename","opensesame_version","practice","prime","prime_condition","relation","repeat_cycle","response","response_end_of_experiment","response_end_of_practice","response_feedback","response_instructions","response_keyboard_response","response_target","response_time","response_time_end_of_experiment","response_time_end_of_practice","response_time_feedback","response_time_instructions","response_time_keyboard_response","response_time_target","round_decimals","sampler_backend","sound_buf_size","sound_channels","sound_freq","sound_sample_size","start","subject_nr","subject_parity","target","target_condition","time_about_this_template","time_blank","time_block_loop","time_block_sequence","time_end_of_experiment","time_end_of_practice","time_experiment","time_experimental_loop","time_feedback","time_fixation","time_instructions","time_keyboard_response","time_logger","time_practice_loop","time_prime","time_reset_feedback","time_target","time_trial_sequence","title","total_correct","total_response_time","total_responses","uniform_coordinates","width"
"0","0","0.030000000144355","0.030000000144355","white","yes","psycho","psycho","psycho","0","uniform","0","undefined","0","n","1","0","0","0","0","0","0","0","0","NA","0","0","0","0","0","0","0","0","0","Tue Dec  5 17:32:56 2023","A template containing a practice and an experimental phase","yes","TalkFile_언어학과심리실험_B조_기말과제용심리실험.osexp.osexp","C:\Users\rober\OneDrive\Documents\Downloads","no","mono","no","18","no","black","no","yes","768","psycho","0","0","0","C:/Users/rober/OneDrive/바탕 화면/subject-2.csv","psycho","Lentiform Loewenfeld","3.3.14","yes","경주","artifactual","no-correlation","0","None","NA","NA","NA","a","None","n","0.030000000144355","NA","NA","NA","115769.36879999994","0.030000000144355","1326.4266999999527","2","psycho","1024","2","48000","-16","experiment","2","even","소나무","natural","NA","131524.30699999968","130671.81829999981","130671.55270000012","NA","NA","14882.24080000009","NA","NA","130810.41449999975","14899.25089999997","132957.33119999978","132957.52670000002","130670.65400000001","131019.40459999969","NA","131630.08279999986","130800.13740000004","Extended template","0","0.030000000144355","1","yes","1024"
"0","0","0.032750000173109584","0.032750000173109584","white","yes","psycho","psycho","psycho","0","uniform","0","undefined","0","n","1","0","1","0","0","0","0","0","0","NA","1","0","1","1","0","1","0","1","1","Tue Dec  5 17:32:56 2023","A template containing a practice and an experimental phase","yes","TalkFile_언어학과심리실험_B조_기말과제용심리실험.osexp.osexp","C:\Users\rober\OneDrive\Documents\Downloads","no","mono","no","18","no","black","no","yes","768","psycho","1","1","0","C:/Users/rober/OneDrive/바탕 화면/subject-2.csv","psycho","Lentiform Loewenfeld","3.3.14","yes","악어","natural","similar-environmental","0","None","NA","NA","NA","a","None","n","0.03550000020186417","NA","NA","NA","115769.36879999994","0.03550000020186417","644.1573000001954","2","psycho","1024","2","48000","-16","experiment","2","even","늪","natural","NA","133821.8526999999","130671.81829999981","130671.55270000012","NA","NA","14882.24080000009","NA","NA","133108.17869999981","14899.25089999997","134572.64989999976","134572.8524000001","130670.65400000001","133316.47109999994","NA","133927.64549999993","133099.99179999979","Extended template","0","0.06550000034621917","2","yes","1024"
"0","0","0.031433333487560354","0.031433333487560354","white","yes","psycho","psycho","psycho","0","uniform","0","undefined","0","a","1","0","2","0","0","0","0","0","0","NA","2","0","2","2","0","2","0","2","2","Tue Dec  5 17:32:56 2023","A template containing a practice and an experimental phase","yes","TalkFile_언어학과심리실험_B조_기말과제용심리실험.osexp.osexp","C:\Users\rober\OneDrive\Documents\Downloads","no","mono","no","18","no","black","no","yes","768","psycho","2","2","0","C:/Users/rober/OneDrive/바탕 화면/subject-2.csv","psycho","Lentiform Loewenfeld","3.3.14","yes","과일","natural","no-correlation","0","None","NA","NA","NA","a","None","a","0.028800000116461888","NA","NA","NA","115769.36879999994","0.028800000116461888","566.6622999997344","2","psycho","1024","2","48000","-16","experiment","2","even","가방","artifactual","NA","135429.82690000007","130671.81829999981","130671.55270000012","NA","NA","14882.24080000009","NA","NA","134715.83349999992","14899.25089999997","136103.42199999967","136103.62749999968","130670.65400000001","134924.31469999976","NA","135535.97179999997","134707.2513999997","Extended template","0","0.09430000046268106","3","yes","1024"
"0","0","0.053700000076787546","0.053700000076787546","white","yes","psycho","psycho","psycho","0","uniform","0","undefined","0","n","1","0","3","1","1","0","0","0","0","NA","3","0","3","3","0","3","1","3","3","Tue Dec  5 17:32:56 2023","A template containing a practice and an experimental phase","yes","TalkFile_언어학과심리실험_B조_기말과제용심리실험.osexp.osexp","C:\Users\rober\OneDrive\Documents\Downloads","no","mono","no","18","no","black","no","yes","768","psycho","0","0","0","C:/Users/rober/OneDrive/바탕 화면/subject-2.csv","psycho","Lentiform Loewenfeld","3.3.14","no","전구","artifactual","similar-environmental","0","None","NA","n","NA","a","None","n","0.053700000076787546","NA","1463.4515000002284","NA","115769.36879999994","0.053700000076787546","3606.6393999999564","2","psycho","1024","2","48000","-16","experiment","2","even","빛","natural","NA","138485.67019999973","137679.51159999985","137679.37110000002","NA","136214.05389999974","14882.24080000009","137678.19559999998","NA","137773.01110000006","14899.25089999997","142199.0851999999","142199.41979999977","130670.65400000001","137981.11979999975","NA","138591.33369999973","137763.47570000007","Extended template","0","0.053700000076787546","1","yes","1024"
"0","0","0.04085000022314489","0.04085000022314489","white","yes","psycho","psycho","psycho","0","uniform","0","undefined","0","n","1","0","4","1","1","0","0","0","0","NA","4","0","4","4","0","4","1","4","4","Tue Dec  5 17:32:56 2023","A template containing a practice and an experimental phase","yes","TalkFile_언어학과심리실험_B조_기말과제용심리실험.osexp.osexp","C:\Users\rober\OneDrive\Documents\Downloads","no","mono","no","18","no","black","no","yes","768","psycho","1","1","0","C:/Users/rober/OneDrive/바탕 화면/subject-2.csv","psycho","Lentiform Loewenfeld","3.3.14","no","불","natural","no-correlation","0","None","NA","n","NA","a","None","n","0.02800000036950223","NA","1463.4515000002284","NA","115769.36879999994","0.02800000036950223","988.4238999998197","2","psycho","1024","2","48000","-16","experiment","2","even","바위","natural","NA","143068.31499999997","137679.51159999985","137679.37110000002","NA","136214.05389999974","14882.24080000009","137678.19559999998","NA","142354.3566999997","14899.25089999997","144163.5094999997","144163.7019","130670.65400000001","142562.83459999986","NA","143174.20609999998","142344.87529999978","Extended template","0","0.08170000044628978","2","yes","1024"
"0","0","0.03606666677903073","0.03606666677903073","white","yes","psycho","psycho","psycho","0","uniform","0","undefined","0","n","1","0","5","1","1","0","0","0","0","NA","5","0","5","5","0","5","1","5","5","Tue Dec  5 17:32:56 2023","A template containing a practice and an experimental phase","yes","TalkFile_언어학과심리실험_B조_기말과제용심리실험.osexp.osexp","C:\Users\rober\OneDrive\Documents\Downloads","no","mono","no","18","no","black","no","yes","768","psycho","2","2","0","C:/Users/rober/OneDrive/바탕 화면/subject-2.csv","psycho","Lentiform Loewenfeld","3.3.14","no","전등","artifactual","no-correlation","0","None","NA","n","NA","a","None","n","0.026499999890802428","NA","1463.4515000002284","NA","115769.36879999994","0.026499999890802428","544.425600000046","2","psycho","1024","2","48000","-16","experiment","2","even","소","natural","NA","145017.0849000001","137679.51159999985","137679.37110000002","NA","136214.05389999974","14882.24080000009","137678.19559999998","NA","144303.50539999973","14899.25089999997","145668.19399999984","145668.3899999998","130670.65400000001","144511.53130000012","NA","145123.0022","144295.39539999995","Extended template","0","0.1082000003370922","3","yes","1024"
"0","0","0.03917500009993091","0.03917500009993091","white","yes","psycho","psycho","psycho","0","uniform","0","undefined","0","a","1","0","6","1","1","0","0","0","0","NA","6","0","6","6","0","6","1","6","6","Tue Dec  5 17:32:56 2023","A template containing a practice and an experimental phase","yes","TalkFile_언어학과심리실험_B조_기말과제용심리실험.osexp.osexp","C:\Users\rober\OneDrive\Documents\Downloads","no","mono","no","18","no","black","no","yes","768","psycho","3","3","0","C:/Users/rober/OneDrive/바탕 화면/subject-2.csv","psycho","Lentiform Loewenfeld","3.3.14","no","기차","artifactual","no-correlation","0","None","NA","n","NA","a","None","a","0.04850000006263144","NA","1463.4515000002284","NA","115769.36879999994","0.04850000006263144","648.2755000001926","2","psycho","1024","2","48000","-16","experiment","2","even","가방","artifactual","NA","146542.18439999977","137679.51159999985","137679.37110000002","NA","136214.05389999974","14882.24080000009","137678.19559999998","NA","145825.30390000012","14899.25089999997","147298.23859999987","147298.6409","130670.65400000001","146036.49009999982","NA","146648.14399999977","145817.31199999969","Extended template","0","0.15670000039972365","4","yes","1024"
"0","0","0.037740000063786285","0.037740000063786285","white","yes","psycho","psycho","psycho","0","uniform","0","undefined","0","n","1","0","7","1","1","0","0","0","0","NA","7","0","7","7","0","7","1","7","7","Tue Dec  5 17:32:56 2023","A template containing a practice and an experimental phase","yes","TalkFile_언어학과심리실험_B조_기말과제용심리실험.osexp.osexp","C:\Users\rober\OneDrive\Documents\Downloads","no","mono","no","18","no","black","no","yes","768","psycho","4","4","0","C:/Users/rober/OneDrive/바탕 화면/subject-2.csv","psycho","Lentiform Loewenfeld","3.3.14","no","호수","natural","same phoneme","0","None","NA","n","NA","a","None","n","0.03199999991920777","NA","1463.4515000002284","NA","115769.36879999994","0.03199999991920777","502.8293999999005","2","psycho","1024","2","48000","-16","experiment","2","even","호랑이","natural","NA","148153.1811","137679.51159999985","137679.37110000002","NA","136214.05389999974","14882.24080000009","137678.19559999998","NA","147440.6684999999","14899.25089999997","148764.17619999984","148764.43130000005","130670.65400000001","147648.81719999993","NA","148260.44060000003","147432.87770000007","Extended template","0","0.18870000031893142","5","yes","1024"
"0","0","0.03628333343173532","0.03628333343173532","white","yes","psycho","psycho","psycho","0","uniform","0","undefined","0","n","1","0","8","1","1","0","0","0","0","NA","8","0","8","8","0","8","1","8","8","Tue Dec  5 17:32:56 2023","A template containing a practice and an experimental phase","yes","TalkFile_언어학과심리실험_B조_기말과제용심리실험.osexp.osexp","C:\Users\rober\OneDrive\Documents\Downloads","no","mono","no","18","no","black","no","yes","768","psycho","5","5","0","C:/Users/rober/OneDrive/바탕 화면/subject-2.csv","psycho","Lentiform Loewenfeld","3.3.14","no","해질녘","natural","same phoneme","0","None","NA","n","NA","a","None","n","0.02900000027148053","NA","1463.4515000002284","NA","115769.36879999994","0.02900000027148053","751.1967999998888","2","psycho","1024","2","48000","-16","experiment","2","even","해마","natural","NA","149635.35009999987","137679.51159999985","137679.37110000002","NA","136214.05389999974","14882.24080000009","137678.19559999998","NA","148921.31949999975","14899.25089999997","150493.1244999998","150493.45390000008","130670.65400000001","149129.98990000004","NA","149741.1320000001","148911.75189999968","Extended template","0","0.21770000059041195","6","yes","1024"
"0","0","0.03577142862403499","0.03577142862403499","white","yes","psycho","psycho","psycho","0","uniform","0","undefined","0","a","0","0","9","1","1","0","0","0","0","NA","9","0","9","9","0","9","1","9","9","Tue Dec  5 17:32:56 2023","A template containing a practice and an experimental phase","yes","TalkFile_언어학과심리실험_B조_기말과제용심리실험.osexp.osexp","C:\Users\rober\OneDrive\Documents\Downloads","no","mono","no","18","no","black","no","yes","768","psycho","6","6","0","C:/Users/rober/OneDrive/바탕 화면/subject-2.csv","psycho","Lentiform Loewenfeld","3.3.14","no","바다","natural","same phoneme","0","None","NA","n","NA","a","None","n","0.032699999777833","NA","1463.4515000002284","NA","115769.36879999994","0.032699999777833","5636.708600000013","2","psycho","1024","2","48000","-16","experiment","2","even","바닥","artifactual","NA","151349.51649999994","137679.51159999985","137679.37110000002","NA","136214.05389999974","14882.24080000009","137678.19559999998","NA","150636.38919999995","14899.25089999997","157093.4299999999","157093.74579999986","130670.65400000001","150844.33050000007","NA","151455.35169999994","150626.68929999974","Extended template","0","0.25040000036824495","7","yes","1024"
"0","0","0.03502500004469766","0.03502500004469766","white","yes","psycho","psycho","psycho","0","uniform","0","undefined","0","n","1","0","10","1","1","0","0","0","0","NA","10","0","10","10","0","10","1","10","10","Tue Dec  5 17:32:56 2023","A template containing a practice and an experimental phase","yes","TalkFile_언어학과심리실험_B조_기말과제용심리실험.osexp.osexp","C:\Users\rober\OneDrive\Documents\Downloads","no","mono","no","18","no","black","no","yes","768","psycho","7","7","0","C:/Users/rober/OneDrive/바탕 화면/subject-2.csv","psycho","Lentiform Loewenfeld","3.3.14","no","해마","natural","same phoneme","0","None","NA","n","NA","a","None","n","0.029799999989336357","NA","1463.4515000002284","NA","115769.36879999994","0.029799999989336357","5480.05629999988","2","psycho","1024","2","48000","-16","experiment","2","even","해질녘","natural","NA","157964.50659999982","137679.51159999985","137679.37110000002","NA","136214.05389999974","14882.24080000009","137678.19559999998","NA","157250.50969999985","14899.25089999997","163551.0863999998","163551.3691000001","130670.65400000001","157458.49219999992","NA","158070.17989999987","157242.38519999973","Extended template","0","0.2802000003575813","8","yes","1024"
"0","0","0.03590000005594144","0.03590000005594144","white","yes","psycho","psycho","psycho","0","uniform","0","undefined","0","n","0","0","11","1","1","0","0","0","0","NA","11","0","11","11","0","11","1","11","11","Tue Dec  5 17:32:56 2023","A template containing a practice and an experimental phase","yes","TalkFile_언어학과심리실험_B조_기말과제용심리실험.osexp.osexp","C:\Users\rober\OneDrive\Documents\Downloads","no","mono","no","18","no","black","no","yes","768","psycho","8","8","0","C:/Users/rober/OneDrive/바탕 화면/subject-2.csv","psycho","Lentiform Loewenfeld","3.3.14","no","오일","natural","same phoneme","0","None","NA","n","NA","a","None","s","0.04290000014589168","NA","1463.4515000002284","NA","115769.36879999994","0.04290000014589168","987.4254000000947","2","psycho","1024","2","48000","-16","experiment","2","even","오리","natural","NA","164404.72099999987","137679.51159999985","137679.37110000002","NA","136214.05389999974","14882.24080000009","137678.19559999998","NA","163690.67640000003","14899.25089999997","165499.5767999999","165499.85100000002","130670.65400000001","163898.71059999996","NA","164511.3615999999","163682.05110000007","Extended template","0","0.323100000503473","9","yes","1024"
"0","0","0.03535000005213078","0.03535000005213078","white","yes","psycho","psycho","psycho","0","uniform","0","undefined","0","n","1","0","12","1","1","0","0","0","0","NA","12","0","12","12","0","12","1","12","12","Tue Dec  5 17:32:56 2023","A template containing a practice and an experimental phase","yes","TalkFile_언어학과심리실험_B조_기말과제용심리실험.osexp.osexp","C:\Users\rober\OneDrive\Documents\Downloads","no","mono","no","18","no","black","no","yes","768","psycho","9","9","0","C:/Users/rober/OneDrive/바탕 화면/subject-2.csv","psycho","Lentiform Loewenfeld","3.3.14","no","동굴","natural","similar-environmental","0","None","NA","n","NA","a","None","n","0.030400000017834827","NA","1463.4515000002284","NA","115769.36879999994","0.030400000017834827","2653.4750999999233","2","psycho","1024","2","48000","-16","experiment","2","even","박쥐","natural","NA","166352.1972999997","137679.51159999985","137679.37110000002","NA","136214.05389999974","14882.24080000009","137678.19559999998","NA","165638.94419999997","14899.25089999997","169113.62430000008","169113.9247000001","130670.65400000001","165846.44739999977","NA","166459.21490000002","165630.9637999998","Extended template","0","0.3535000005213078","10","yes","1024"
"0","0","0.034809090924682096","0.034809090924682096","white","yes","psycho","psycho","psycho","0","uniform","0","undefined","0","a","1","0","13","1","1","0","0","0","0","NA","13","0","13","13","0","13","1","13","13","Tue Dec  5 17:32:56 2023","A template containing a practice and an experimental phase","yes","TalkFile_언어학과심리실험_B조_기말과제용심리실험.osexp.osexp","C:\Users\rober\OneDrive\Documents\Downloads","no","mono","no","18","no","black","no","yes","768","psycho","10","10","0","C:/Users/rober/OneDrive/바탕 화면/subject-2.csv","psycho","Lentiform Loewenfeld","3.3.14","no","선설수","non-word","non-word","0","None","NA","n","NA","a","None","a","0.02939999965019524","NA","1463.4515000002284","NA","115769.36879999994","0.02939999965019524","879.9676999997173","2","psycho","1024","2","48000","-16","experiment","2","even","시계","artifactual","NA","169971.321","137679.51159999985","137679.37110000002","NA","136214.05389999974","14882.24080000009","137678.19559999998","NA","169258.14420000007","14899.25089999997","170957.39460000006","170957.67530000012","130670.65400000001","169466.16790000006","NA","170076.48259999996","169249.0746999997","Extended template","0","0.38290000017150305","11","yes","1024"
"0","0","0.03435833335727997","0.03435833335727997","white","yes","psycho","psycho","psycho","0","uniform","0","undefined","0","n","1","0","14","1","1","0","0","0","0","NA","14","0","14","14","0","14","1","14","14","Tue Dec  5 17:32:56 2023","A template containing a practice and an experimental phase","yes","TalkFile_언어학과심리실험_B조_기말과제용심리실험.osexp.osexp","C:\Users\rober\OneDrive\Documents\Downloads","no","mono","no","18","no","black","no","yes","768","psycho","11","11","0","C:/Users/rober/OneDrive/바탕 화면/subject-2.csv","psycho","Lentiform Loewenfeld","3.3.14","no","가을","natural","similar-environmental","0","None","NA","n","NA","a","None","n","0.02940000011585653","NA","1463.4515000002284","NA","115769.36879999994","0.02940000011585653","8091.586900000024","2","psycho","1024","2","48000","-16","experiment","2","even","낙엽","natural","NA","171810.23389999973","137679.51159999985","137679.37110000002","NA","136214.05389999974","14882.24080000009","137678.19559999998","NA","171097.09219999966","14899.25089999997","180008.12859999997","180008.42889999968","130670.65400000001","171304.94210000007","NA","171915.62029999978","171089.43550000002","Extended template","0","0.4123000002873596","12","yes","1024"
"0","0","0.03381538464096733","0.03381538464096733","white","yes","psycho","psycho","psycho","0","uniform","0","undefined","0","a","1","0","15","1","1","0","0","0","0","NA","15","0","15","15","0","15","1","15","15","Tue Dec  5 17:32:56 2023","A template containing a practice and an experimental phase","yes","TalkFile_언어학과심리실험_B조_기말과제용심리실험.osexp.osexp","C:\Users\rober\OneDrive\Documents\Downloads","no","mono","no","18","no","black","no","yes","768","psycho","12","12","0","C:/Users/rober/OneDrive/바탕 화면/subject-2.csv","psycho","Lentiform Loewenfeld","3.3.14","no","악어","natural","same phoneme","0","None","NA","n","NA","a","None","a","0.02730000004521571","NA","1463.4515000002284","NA","115769.36879999994","0.02730000004521571","854.5696000001044","2","psycho","1024","2","48000","-16","experiment","2","even","악기","artifactual","NA","180875.66179999977","137679.51159999985","137679.37110000002","NA","136214.05389999974","14882.24080000009","137678.19559999998","NA","180162.24469999998","14899.25089999997","181836.9158999999","181837.22129999977","130670.65400000001","180370.27269999997","NA","180981.52009999967","180153.27470000013","Extended template","0","0.4396000003325753","13","yes","1024"
"0","0","0.03335714287407297","0.03335714287407297","white","yes","psycho","psycho","psycho","0","uniform","0","undefined","0","a","1","0","16","1","1","0","0","0","0","NA","16","0","16","16","0","16","1","16","16","Tue Dec  5 17:32:56 2023","A template containing a practice and an experimental phase","yes","TalkFile_언어학과심리실험_B조_기말과제용심리실험.osexp.osexp","C:\Users\rober\OneDrive\Documents\Downloads","no","mono","no","18","no","black","no","yes","768","psycho","13","13","0","C:/Users/rober/OneDrive/바탕 화면/subject-2.csv","psycho","Lentiform Loewenfeld","3.3.14","no","눈","natural","similar-environmental","0","None","NA","n","NA","a","None","a","0.027399999904446304","NA","1463.4515000002284","NA","115769.36879999994","0.027399999904446304","11843.037300000084","2","psycho","1024","2","48000","-16","experiment","2","even","스키","artifactual","NA","182701.08320000008","137679.51159999985","137679.37110000002","NA","136214.05389999974","14882.24080000009","137678.19559999998","NA","181988.08499999996","14899.25089999997","194650.21209999986","194650.5348999999","130670.65400000001","182196.0927","NA","182806.294","181976.42939999967","Extended template","0","0.4670000002370216","14","yes","1024"
"0","0","0.03305333332585481","0.03305333332585481","white","yes","psycho","psycho","psycho","0","uniform","0","undefined","0","a","1","0","17","1","1","0","0","0","0","NA","17","0","17","17","0","17","1","17","17","Tue Dec  5 17:32:56 2023","A template containing a practice and an experimental phase","yes","TalkFile_언어학과심리실험_B조_기말과제용심리실험.osexp.osexp","C:\Users\rober\OneDrive\Documents\Downloads","no","mono","no","18","no","black","no","yes","768","psycho","14","14","0","C:/Users/rober/OneDrive/바탕 화면/subject-2.csv","psycho","Lentiform Loewenfeld","3.3.14","no","바다","natural","same phoneme","0","None","NA","n","NA","a","None","a","0.0287999996508006","NA","1463.4515000002284","NA","115769.36879999994","0.0287999996508006","1789.177699999971","2","psycho","1024","2","48000","-16","experiment","2","even","바구니","artifactual","NA","195507.1911","137679.51159999985","137679.37110000002","NA","136214.05389999974","14882.24080000009","137678.19559999998","NA","194793.41410000005","14899.25089999997","197403.63500000013","197403.98849999974","130670.65400000001","195001.50970000005","NA","195613.5575999997","194785.06849999985","Extended template","0","0.4957999998878222","15","yes","1024"
"0","0","0.035618750014691614","0.035618750014691614","white","yes","psycho","psycho","psycho","0","uniform","0","undefined","0","a","1","0","18","1","1","0","0","0","0","NA","18","0","18","18","0","18","1","18","18","Tue Dec  5 17:32:56 2023","A template containing a practice and an experimental phase","yes","TalkFile_언어학과심리실험_B조_기말과제용심리실험.osexp.osexp","C:\Users\rober\OneDrive\Documents\Downloads","no","mono","no","18","no","black","no","yes","768","psycho","15","15","0","C:/Users/rober/OneDrive/바탕 화면/subject-2.csv","psycho","Lentiform Loewenfeld","3.3.14","no","호수","natural","no-correlation","0","None","NA","n","NA","a","None","a","0.07410000034724362","NA","1463.4515000002284","NA","115769.36879999994","0.07410000034724362","1640.377299999731","2","psycho","1024","2","48000","-16","experiment","2","even","화장실","artifactual","NA","198278.83829999974","137679.51159999985","137679.37110000002","NA","136214.05389999974","14882.24080000009","137678.19559999998","NA","197564.98839999994","14899.25089999997","200026.62789999976","200027.2826999999","130670.65400000001","197773.24309999993","NA","198384.39719999998","197552.34849999988","Extended template","0","0.5699000002350658","16","yes","1024"
"0","0","0.03521176470916115","0.03521176470916115","white","yes","psycho","psycho","psycho","0","uniform","0","undefined","0","a","0","0","19","1","1","0","0","0","0","NA","19","0","19","19","0","19","1","19","19","Tue Dec  5 17:32:56 2023","A template containing a practice and an experimental phase","yes","TalkFile_언어학과심리실험_B조_기말과제용심리실험.osexp.osexp","C:\Users\rober\OneDrive\Documents\Downloads","no","mono","no","18","no","black","no","yes","768","psycho","16","16","0","C:/Users/rober/OneDrive/바탕 화면/subject-2.csv","psycho","Lentiform Loewenfeld","3.3.14","no","바다","natural","similar-environmental","0","None","NA","n","NA","a","None","n","0.028699999820673838","NA","1463.4515000002284","NA","115769.36879999994","0.028699999820673838","1896.7042999997793","2","psycho","1024","2","48000","-16","experiment","2","even","배","artifactual","NA","200883.45750000008","137679.51159999985","137679.37110000002","NA","136214.05389999974","14882.24080000009","137678.19559999998","NA","200167.87309999974","14899.25089999997","202887.07969999994","202887.45289999997","130670.65400000001","200377.31140000006","NA","200989.46569999997","200159.41470000008","Extended template","0","0.5986000000557397","17","yes","1024"
"0","0","0.03493333332719178","0.03493333332719178","white","yes","psycho","psycho","psycho","0","uniform","0","undefined","0","n","0","0","20","1","1","0","0","0","0","NA","20","0","20","20","0","20","1","20","20","Tue Dec  5 17:32:56 2023","A template containing a practice and an experimental phase","yes","TalkFile_언어학과심리실험_B조_기말과제용심리실험.osexp.osexp","C:\Users\rober\OneDrive\Documents\Downloads","no","mono","no","18","no","black","no","yes","768","psycho","17","17","0","C:/Users/rober/OneDrive/바탕 화면/subject-2.csv","psycho","Lentiform Loewenfeld","3.3.14","no","늪","natural","similar-environmental","0","None","NA","n","NA","a","None","a","0.030199999833712354","NA","1463.4515000002284","NA","115769.36879999994","0.030199999833712354","704.4304999999295","2","psycho","1024","2","48000","-16","experiment","2","even","악어","natural","NA","203743.74910000007","137679.51159999985","137679.37110000002","NA","136214.05389999974","14882.24080000009","137678.19559999998","NA","203030.04809999993","14899.25089999997","204555.66210000007","204556.02490000002","130670.65400000001","203238.05540000013","NA","203850.34029999998","203020.7581999998","Extended template","0","0.628799999889452","18","yes","1024"
"0","0","0.035063157893570236","0.035063157893570236","white","yes","psycho","psycho","psycho","0","uniform","0","undefined","0","n","1","0","21","1","1","0","0","0","0","NA","21","0","21","21","0","21","1","21","21","Tue Dec  5 17:32:56 2023","A template containing a practice and an experimental phase","yes","TalkFile_언어학과심리실험_B조_기말과제용심리실험.osexp.osexp","C:\Users\rober\OneDrive\Documents\Downloads","no","mono","no","18","no","black","no","yes","768","psycho","18","18","0","C:/Users/rober/OneDrive/바탕 화면/subject-2.csv","psycho","Lentiform Loewenfeld","3.3.14","no","태양계","natural","inclusive","0","None","NA","n","NA","a","None","n","0.03740000008838251","NA","1463.4515000002284","NA","115769.36879999994","0.03740000008838251","850.017499999929","2","psycho","1024","2","48000","-16","experiment","2","even","목성","natural","NA","205418.37589999978","137679.51159999985","137679.37110000002","NA","136214.05389999974","14882.24080000009","137678.19559999998","NA","204704.77720000007","14899.25089999997","206375.03459999972","206375.38189999986","130670.65400000001","204913.18619999994","NA","205524.00039999976","204696.45059999992","Extended template","0","0.6661999999778345","19","yes","1024"
"0","0","0.035175000011804514","0.035175000011804514","white","yes","psycho","psycho","psycho","0","uniform","0","undefined","0","n","1","0","22","1","1","0","0","0","0","NA","22","0","22","22","0","22","1","22","22","Tue Dec  5 17:32:56 2023","A template containing a practice and an experimental phase","yes","TalkFile_언어학과심리실험_B조_기말과제용심리실험.osexp.osexp","C:\Users\rober\OneDrive\Documents\Downloads","no","mono","no","18","no","black","no","yes","768","psycho","19","19","0","C:/Users/rober/OneDrive/바탕 화면/subject-2.csv","psycho","Lentiform Loewenfeld","3.3.14","no","바다","natural","same phoneme","0","None","NA","n","NA","a","None","n","0.03730000025825575","NA","1463.4515000002284","NA","115769.36879999994","0.03730000025825575","573.723799999716","2","psycho","1024","2","48000","-16","experiment","2","even","바퀴벌레","natural","NA","207276.40380000003","137679.51159999985","137679.37110000002","NA","136214.05389999974","14882.24080000009","137678.19559999998","NA","206563.0169000001","14899.25089999997","207957.8091999997","207958.17110000007","130670.65400000001","206770.72580000004","NA","207383.08460000006","206554.7548999998","Extended template","0","0.7035000002360903","20","yes","1024"
"0","0","0.03482857144332402","0.03482857144332402","white","yes","psycho","psycho","psycho","0","uniform","0","undefined","0","a","1","0","23","1","1","0","0","0","0","NA","23","0","23","23","0","23","1","23","23","Tue Dec  5 17:32:56 2023","A template containing a practice and an experimental phase","yes","TalkFile_언어학과심리실험_B조_기말과제용심리실험.osexp.osexp","C:\Users\rober\OneDrive\Documents\Downloads","no","mono","no","18","no","black","no","yes","768","psycho","20","20","0","C:/Users/rober/OneDrive/바탕 화면/subject-2.csv","psycho","Lentiform Loewenfeld","3.3.14","no","향수","artifactual","no-correlation","0","None","NA","n","NA","a","None","a","0.027900000073714182","NA","1463.4515000002284","NA","115769.36879999994","0.027900000073714182","615.7734000002965","2","psycho","1024","2","48000","-16","experiment","2","even","선풍기","artifactual","NA","208813.88149999976","137679.51159999985","137679.37110000002","NA","136214.05389999974","14882.24080000009","137678.19559999998","NA","208100.52479999966","14899.25089999997","209536.4222999997","209536.80159999977","130670.65400000001","208309.18870000006","NA","208919.7172999998","208091.99619999982","Extended template","0","0.7314000003098045","21","yes","1024"
"0","0","0.036109090920283714","0.036109090920283714","white","yes","psycho","psycho","psycho","0","uniform","0","undefined","0","a","1","0","24","1","1","0","0","0","0","NA","24","0","24","24","0","24","1","24","24","Tue Dec  5 17:32:56 2023","A template containing a practice and an experimental phase","yes","TalkFile_언어학과심리실험_B조_기말과제용심리실험.osexp.osexp","C:\Users\rober\OneDrive\Documents\Downloads","no","mono","no","18","no","black","no","yes","768","psycho","21","21","0","C:/Users/rober/OneDrive/바탕 화면/subject-2.csv","psycho","Lentiform Loewenfeld","3.3.14","no","전기","natural","similar-environmental","0","None","NA","n","NA","a","None","a","0.06299999993643723","NA","1463.4515000002284","NA","115769.36879999994","0.06299999993643723","898.0996999998752","2","psycho","1024","2","48000","-16","experiment","2","even","전선","artifactual","NA","210400.28649999975","137679.51159999985","137679.37110000002","NA","136214.05389999974","14882.24080000009","137678.19559999998","NA","209679.40679999994","14899.25089999997","211405.24229999984","211405.71829999998","130670.65400000001","209894.70559999972","NA","210505.79329999982","209669.30279999998","Extended template","0","0.7944000002462417","22","yes","1024"
"0","0","0.0362608695767172","0.0362608695767172","white","yes","psycho","psycho","psycho","0","uniform","0","undefined","0","n","1","0","25","1","1","0","0","0","0","NA","25","0","25","25","0","25","1","25","25","Tue Dec  5 17:32:56 2023","A template containing a practice and an experimental phase","yes","TalkFile_언어학과심리실험_B조_기말과제용심리실험.osexp.osexp","C:\Users\rober\OneDrive\Documents\Downloads","no","mono","no","18","no","black","no","yes","768","psycho","22","22","0","C:/Users/rober/OneDrive/바탕 화면/subject-2.csv","psycho","Lentiform Loewenfeld","3.3.14","no","수영","artifactual","similar-environmental","0","None","NA","n","NA","a","None","n","0.03960000001825392","NA","1463.4515000002284","NA","115769.36879999994","0.03960000001825392","1570.8875000000116","2","psycho","1024","2","48000","-16","experiment","2","even","바다","natural","NA","212266.71719999966","137679.51159999985","137679.37110000002","NA","136214.05389999974","14882.24080000009","137678.19559999998","NA","211552.6845999998","14899.25089999997","213944.2853999999","213944.6680000001","130670.65400000001","211761.32229999985","NA","212372.41259999975","211542.33010000008","Extended template","0","0.8340000002644956","23","yes","1024"
"0","0","0.035975000017060665","0.035975000017060665","white","yes","psycho","psycho","psycho","0","uniform","0","undefined","0","n","1","0","26","1","1","0","0","0","0","NA","26","0","26","26","0","26","1","26","26","Tue Dec  5 17:32:56 2023","A template containing a practice and an experimental phase","yes","TalkFile_언어학과심리실험_B조_기말과제용심리실험.osexp.osexp","C:\Users\rober\OneDrive\Documents\Downloads","no","mono","no","18","no","black","no","yes","768","psycho","23","23","0","C:/Users/rober/OneDrive/바탕 화면/subject-2.csv","psycho","Lentiform Loewenfeld","3.3.14","no","등산로","artifactual","similar-environmental","0","None","NA","n","NA","a","None","n","0.02940000014496036","NA","1463.4515000002284","NA","115769.36879999994","0.02940000014496036","960.1277000001573","2","psycho","1024","2","48000","-16","experiment","2","even","산","natural","NA","214802.94939999975","137679.51159999985","137679.37110000002","NA","136214.05389999974","14882.24080000009","137678.19559999998","NA","214089.89999999994","14899.25089999997","215871.05519999977","215871.44799999986","130670.65400000001","214298.26249999995","NA","214909.9517999998","214081.34889999975","Extended template","0","0.863400000409456","24","yes","1024"
"0","0","0.035840000014286486","0.035840000014286486","white","yes","psycho","psycho","psycho","0","uniform","0","undefined","0","a","1","0","27","1","1","0","0","0","0","NA","27","0","27","27","0","27","1","27","27","Tue Dec  5 17:32:56 2023","A template containing a practice and an experimental phase","yes","TalkFile_언어학과심리실험_B조_기말과제용심리실험.osexp.osexp","C:\Users\rober\OneDrive\Documents\Downloads","no","mono","no","18","no","black","no","yes","768","psycho","24","24","0","C:/Users/rober/OneDrive/바탕 화면/subject-2.csv","psycho","Lentiform Loewenfeld","3.3.14","no","플피","non-word","non-word","0","None","NA","n","NA","a","None","a","0.03259999994770624","NA","1463.4515000002284","NA","115769.36879999994","0.03259999994770624","670.086600000126","2","psycho","1024","2","48000","-16","experiment","2","even","책상","artifactual","NA","216731.89189999993","137679.51159999985","137679.37110000002","NA","136214.05389999974","14882.24080000009","137678.19559999998","NA","216017.86839999977","14899.25089999997","217508.7039","217509.12440000003","130670.65400000001","216226.2152999997","NA","216837.6561","216009.82729999986","Extended template","0","0.8960000003571622","25","yes","1024"
"0","0","0.035615384617883064","0.035615384617883064","white","yes","psycho","psycho","psycho","0","uniform","0","undefined","0","a","1","0","28","1","1","0","0","0","0","NA","28","0","28","28","0","28","1","28","28","Tue Dec  5 17:32:56 2023","A template containing a practice and an experimental phase","yes","TalkFile_언어학과심리실험_B조_기말과제용심리실험.osexp.osexp","C:\Users\rober\OneDrive\Documents\Downloads","no","mono","no","18","no","black","no","yes","768","psycho","25","25","0","C:/Users/rober/OneDrive/바탕 화면/subject-2.csv","psycho","Lentiform Loewenfeld","3.3.14","no","바람","natural","no-correlation","0","None","NA","n","NA","a","None","a","0.029999999707797542","NA","1463.4515000002284","NA","115769.36879999994","0.029999999707797542","751.3838999998407","2","psycho","1024","2","48000","-16","experiment","2","even","버스","artifactual","NA","218384.39930000005","137679.51159999985","137679.37110000002","NA","136214.05389999974","14882.24080000009","137678.19559999998","NA","217669.8378000001","14899.25089999997","219243.1517","219243.56309999985","130670.65400000001","217878.1912999998","NA","218490.70119999986","217661.29120000004","Extended template","0","0.9260000000649597","26","yes","1024"
"0","0","0.035522222228960516","0.035522222228960516","white","yes","psycho","psycho","psycho","0","uniform","0","undefined","0","a","1","0","29","1","1","0","0","0","0","NA","29","0","29","29","0","29","1","29","29","Tue Dec  5 17:32:56 2023","A template containing a practice and an experimental phase","yes","TalkFile_언어학과심리실험_B조_기말과제용심리실험.osexp.osexp","C:\Users\rober\OneDrive\Documents\Downloads","no","mono","no","18","no","black","no","yes","768","psycho","26","26","0","C:/Users/rober/OneDrive/바탕 화면/subject-2.csv","psycho","Lentiform Loewenfeld","3.3.14","no","모니터","artifactual","same phoneme","0","None","NA","n","NA","a","None","a","0.033100000116974115","NA","1463.4515000002284","NA","115769.36879999994","0.033100000116974115","648.1125000000466","2","psycho","1024","2","48000","-16","experiment","2","even","모터","artifactual","NA","220101.6454999999","137679.51159999985","137679.37110000002","NA","136214.05389999974","14882.24080000009","137678.19559999998","NA","219386.11809999976","14899.25089999997","220856.28859999997","220856.76319999993","130670.65400000001","219595.51489999966","NA","220207.08429999967","219377.62049999993","Extended template","0","0.9591000001819339","27","yes","1024"
"0","0","0.03562500000615338","0.03562500000615338","white","yes","psycho","psycho","psycho","0","uniform","0","undefined","0","a","1","0","30","1","1","0","0","0","0","NA","30","0","30","30","0","30","1","30","30","Tue Dec  5 17:32:56 2023","A template containing a practice and an experimental phase","yes","TalkFile_언어학과심리실험_B조_기말과제용심리실험.osexp.osexp","C:\Users\rober\OneDrive\Documents\Downloads","no","mono","no","18","no","black","no","yes","768","psycho","27","27","0","C:/Users/rober/OneDrive/바탕 화면/subject-2.csv","psycho","Lentiform Loewenfeld","3.3.14","no","과일","natural","no-correlation","0","None","NA","n","NA","a","None","a","0.03839999999036081","NA","1463.4515000002284","NA","115769.36879999994","0.03839999999036081","1062.144900000043","2","psycho","1024","2","48000","-16","experiment","2","even","가방","artifactual","NA","221713.10859999995","137679.51159999985","137679.37110000002","NA","136214.05389999974","14882.24080000009","137678.19559999998","NA","220998.96089999992","14899.25089999997","222881.81829999984","222882.2479999999","130670.65400000001","221207.75299999968","NA","221818.66199999966","220990.7330000001","Extended template","0","0.9975000001722947","28","yes","1024"
"0","0","0.03544137930670143","0.03544137930670143","white","yes","psycho","psycho","psycho","0","uniform","0","undefined","0","n","1","0","31","1","1","0","0","0","0","NA","31","0","31","31","0","31","1","31","31","Tue Dec  5 17:32:56 2023","A template containing a practice and an experimental phase","yes","TalkFile_언어학과심리실험_B조_기말과제용심리실험.osexp.osexp","C:\Users\rober\OneDrive\Documents\Downloads","no","mono","no","18","no","black","no","yes","768","psycho","28","28","0","C:/Users/rober/OneDrive/바탕 화면/subject-2.csv","psycho","Lentiform Loewenfeld","3.3.14","no","얼음","natural","no-correlation","0","None","NA","n","NA","a","None","n","0.030299999722046778","NA","1463.4515000002284","NA","115769.36879999994","0.030299999722046778","726.2369999998482","2","psycho","1024","2","48000","-16","experiment","2","even","돌","natural","NA","223737.88680000007","137679.51159999985","137679.37110000002","NA","136214.05389999974","14882.24080000009","137678.19559999998","NA","223024.85429999977","14899.25089999997","224571.31780000008","224571.8237000001","130670.65400000001","223232.5221000001","NA","223843.91770000002","223016.02460000003","Extended template","0","1.0277999998943415","29","yes","1024"
"0","0","0.03519333332660608","0.03519333332660608","white","yes","psycho","psycho","psycho","0","uniform","0","undefined","0","a","1","0","32","1","1","0","0","0","0","NA","32","0","32","32","0","32","1","32","32","Tue Dec  5 17:32:56 2023","A template containing a practice and an experimental phase","yes","TalkFile_언어학과심리실험_B조_기말과제용심리실험.osexp.osexp","C:\Users\rober\OneDrive\Documents\Downloads","no","mono","no","18","no","black","no","yes","768","psycho","29","29","0","C:/Users/rober/OneDrive/바탕 화면/subject-2.csv","psycho","Lentiform Loewenfeld","3.3.14","no","꽃","natural","no-correlation","0","None","NA","n","NA","a","None","a","0.027999999903840944","NA","1463.4515000002284","NA","115769.36879999994","0.027999999903840944","1633.6713000000454","2","psycho","1024","2","48000","-16","experiment","2","even","경주","artifactual","NA","225426.83639999997","137679.51159999985","137679.37110000002","NA","136214.05389999974","14882.24080000009","137678.19559999998","NA","224714.1182999999","14899.25089999997","227167.46939999986","227167.89819999985","130670.65400000001","224922.21620000008","NA","225532.56590000002","224705.98819999988","Extended template","0","1.0557999997981824","30","yes","1024"
"0","0","0.03500967741204095","0.03500967741204095","white","yes","psycho","psycho","psycho","0","uniform","0","undefined","0","n","1","0","33","1","1","0","0","0","0","NA","33","0","33","33","0","33","1","33","33","Tue Dec  5 17:32:56 2023","A template containing a practice and an experimental phase","yes","TalkFile_언어학과심리실험_B조_기말과제용심리실험.osexp.osexp","C:\Users\rober\OneDrive\Documents\Downloads","no","mono","no","18","no","black","no","yes","768","psycho","30","30","0","C:/Users/rober/OneDrive/바탕 화면/subject-2.csv","psycho","Lentiform Loewenfeld","3.3.14","no","의자","artifactual","no-correlation","0","None","NA","n","NA","a","None","n","0.02949999997508712","NA","1463.4515000002284","NA","115769.36879999994","0.02949999997508712","1379.1531000001705","2","psycho","1024","2","48000","-16","experiment","2","even","행성","natural","NA","228025.43259999994","137679.51159999985","137679.37110000002","NA","136214.05389999974","14882.24080000009","137678.19559999998","NA","227311.6316999999","14899.25089999997","229511.28299999982","229511.7620000001","130670.65400000001","227519.5152000001","NA","228131.07469999976","227303.43029999995","Extended template","0","1.0852999997732695","31","yes","1024"
"0","0","0.034759374993882375","0.034759374993882375","white","yes","psycho","psycho","psycho","0","uniform","0","undefined","0","a","1","0","34","1","1","0","0","0","0","NA","34","0","34","34","0","34","1","34","34","Tue Dec  5 17:32:56 2023","A template containing a practice and an experimental phase","yes","TalkFile_언어학과심리실험_B조_기말과제용심리실험.osexp.osexp","C:\Users\rober\OneDrive\Documents\Downloads","no","mono","no","18","no","black","no","yes","768","psycho","31","31","0","C:/Users/rober/OneDrive/바탕 화면/subject-2.csv","psycho","Lentiform Loewenfeld","3.3.14","no","키보드","artifactual","similar-environmental","0","None","NA","n","NA","a","None","a","0.027000000030966476","NA","1463.4515000002284","NA","115769.36879999994","0.027000000030966476","1086.6812000003702","2","psycho","1024","2","48000","-16","experiment","2","even","컴퓨터","artifactual","NA","230375.0700999999","137679.51159999985","137679.37110000002","NA","136214.05389999974","14882.24080000009","137678.19559999998","NA","229659.3259000001","14899.25089999997","231568.87259999986","231569.3172000001","130670.65400000001","229867.54840000003","NA","230481.04609999974","229650.85360000012","Extended template","0","1.112299999804236","32","yes","1024"
"0","0","0.03459090908467205","0.03459090908467205","white","yes","psycho","psycho","psycho","0","uniform","0","undefined","0","n","0","0","35","1","1","0","0","0","0","NA","35","0","35","35","0","35","1","35","35","Tue Dec  5 17:32:56 2023","A template containing a practice and an experimental phase","yes","TalkFile_언어학과심리실험_B조_기말과제용심리실험.osexp.osexp","C:\Users\rober\OneDrive\Documents\Downloads","no","mono","no","18","no","black","no","yes","768","psycho","32","32","0","C:/Users/rober/OneDrive/바탕 화면/subject-2.csv","psycho","Lentiform Loewenfeld","3.3.14","no","구두","artifactual","same phoneme","0","None","NA","n","NA","a","None","a","0.029199999989941716","NA","1463.4515000002284","NA","115769.36879999994","0.029199999989941716","869.8665000001783","2","psycho","1024","2","48000","-16","experiment","2","even","구름","natural","NA","232431.5068000001","137679.51159999985","137679.37110000002","NA","136214.05389999974","14882.24080000009","137678.19559999998","NA","231715.5230999997","14899.25089999997","233408.28469999996","233408.7583999999","130670.65400000001","231926.23899999988","NA","232537.2484999998","231706.86149999982","Extended template","0","1.1414999997941777","33","yes","1024"
"0","0","0.03442058823180988","0.03442058823180988","white","yes","psycho","psycho","psycho","0","uniform","0","undefined","0","x","1","0","36","1","1","0","0","0","0","NA","36","0","36","36","0","36","1","36","36","Tue Dec  5 17:32:56 2023","A template containing a practice and an experimental phase","yes","TalkFile_언어학과심리실험_B조_기말과제용심리실험.osexp.osexp","C:\Users\rober\OneDrive\Documents\Downloads","no","mono","no","18","no","black","no","yes","768","psycho","33","33","0","C:/Users/rober/OneDrive/바탕 화면/subject-2.csv","psycho","Lentiform Loewenfeld","3.3.14","no","사자","natural","non-word","0","None","NA","n","NA","a","None","x","0.028800000087358057","NA","1463.4515000002284","NA","115769.36879999994","0.028800000087358057","2313.2501000000047","2","psycho","1024","2","48000","-16","experiment","2","even","러스바이","non-word","NA","234267.0527999999","137679.51159999985","137679.37110000002","NA","136214.05389999974","14882.24080000009","137678.19559999998","NA","233553.5178","14899.25089999997","236687.1483","236687.6398999998","130670.65400000001","233761.67159999977","NA","234372.83799999979","233544.17999999988","Extended template","0","1.1702999998815358","34","yes","1024"
"0","0","0.03423428571300714","0.03423428571300714","white","yes","psycho","psycho","psycho","0","uniform","0","undefined","0","a","1","0","37","1","1","0","0","0","0","NA","37","0","37","37","0","37","1","37","37","Tue Dec  5 17:32:56 2023","A template containing a practice and an experimental phase","yes","TalkFile_언어학과심리실험_B조_기말과제용심리실험.osexp.osexp","C:\Users\rober\OneDrive\Documents\Downloads","no","mono","no","18","no","black","no","yes","768","psycho","34","34","0","C:/Users/rober/OneDrive/바탕 화면/subject-2.csv","psycho","Lentiform Loewenfeld","3.3.14","no","옷","artifactual","inclusive","0","None","NA","n","NA","a","None","a","0.027900000073714182","NA","1463.4515000002284","NA","115769.36879999994","0.027900000073714182","1210.3816000003717","2","psycho","1024","2","48000","-16","experiment","2","even","코트","artifactual","NA","237547.73479999995","137679.51159999985","137679.37110000002","NA","136214.05389999974","14882.24080000009","137678.19559999998","NA","236833.19540000003","14899.25089999997","238865.1888999998","238865.65599999996","130670.65400000001","237041.90530000004","NA","237653.67579999974","236824.0593999999","Extended template","0","1.19819999995525","35","yes","1024"
"0","0","0.0344583333353512","0.0344583333353512","white","yes","psycho","psycho","psycho","0","uniform","0","undefined","0","a","1","0","38","1","1","0","0","0","0","NA","38","0","38","38","0","38","1","38","38","Tue Dec  5 17:32:56 2023","A template containing a practice and an experimental phase","yes","TalkFile_언어학과심리실험_B조_기말과제용심리실험.osexp.osexp","C:\Users\rober\OneDrive\Documents\Downloads","no","mono","no","18","no","black","no","yes","768","psycho","35","35","0","C:/Users/rober/OneDrive/바탕 화면/subject-2.csv","psycho","Lentiform Loewenfeld","3.3.14","no","성적표","artifactual","same phoneme","0","None","NA","n","NA","a","None","a","0.04230000011739321","NA","1463.4515000002284","NA","115769.36879999994","0.04230000011739321","1705.5514000003168","2","psycho","1024","2","48000","-16","experiment","2","even","성냥","artifactual","NA","239724.27939999988","137679.51159999985","137679.37110000002","NA","136214.05389999974","14882.24080000009","137678.19559999998","NA","239011.07479999974","14899.25089999997","241537.05549999996","241537.558","130670.65400000001","239219.74509999974","NA","239830.4347999997","239002.59819999975","Extended template","0","1.2405000000726432","36","yes","1024"
"0","0","0.03425405404886004","0.03425405404886004","white","yes","psycho","psycho","psycho","0","uniform","0","undefined","0","a","1","0","39","1","1","0","0","0","0","NA","39","0","39","39","0","39","1","39","39","Tue Dec  5 17:32:56 2023","A template containing a practice and an experimental phase","yes","TalkFile_언어학과심리실험_B조_기말과제용심리실험.osexp.osexp","C:\Users\rober\OneDrive\Documents\Downloads","no","mono","no","18","no","black","no","yes","768","psycho","36","36","0","C:/Users/rober/OneDrive/바탕 화면/subject-2.csv","psycho","Lentiform Loewenfeld","3.3.14","no","벌레","natural","same phoneme","0","None","NA","n","NA","a","None","a","0.026899999735178426","NA","1463.4515000002284","NA","115769.36879999994","0.026899999735178426","3079.2102999998897","2","psycho","1024","2","48000","-16","experiment","2","even","발레","artifactual","NA","242396.60490000006","137679.51159999985","137679.37110000002","NA","136214.05389999974","14882.24080000009","137678.19559999998","NA","241682.0174999998","14899.25089999997","245582.90360000002","245583.38539999977","130670.65400000001","241890.17749999993","NA","242502.60299999992","241673.18879999995","Extended template","0","1.2673999998078216","37","yes","1024"
"0","0","0.03409473683936276","0.03409473683936276","white","yes","psycho","psycho","psycho","0","uniform","0","undefined","0","n","1","0","40","1","1","0","0","0","0","NA","40","0","40","40","0","40","1","40","40","Tue Dec  5 17:32:56 2023","A template containing a practice and an experimental phase","yes","TalkFile_언어학과심리실험_B조_기말과제용심리실험.osexp.osexp","C:\Users\rober\OneDrive\Documents\Downloads","no","mono","no","18","no","black","no","yes","768","psycho","37","37","0","C:/Users/rober/OneDrive/바탕 화면/subject-2.csv","psycho","Lentiform Loewenfeld","3.3.14","no","달력","artifactual","same phoneme","0","None","NA","n","NA","a","None","n","0.028200000087963417","NA","1463.4515000002284","NA","115769.36879999994","0.028200000087963417","2865.479800000234","2","psycho","1024","2","48000","-16","experiment","2","even","달","natural","NA","246439.9257","137679.51159999985","137679.37110000002","NA","136214.05389999974","14882.24080000009","137678.19559999998","NA","245726.13779999982","14899.25089999997","249413.52359999972","249414.0210999999","130670.65400000001","245934.46240000002","NA","246546.9082999998","245717.8715","Extended template","0","1.295599999895785","38","yes","1024"
"0","0","0.034058974362545624","0.034058974362545624","white","yes","psycho","psycho","psycho","0","uniform","0","undefined","0","n","1","0","41","1","1","0","0","0","0","NA","41","0","41","41","0","41","1","41","41","Tue Dec  5 17:32:56 2023","A template containing a practice and an experimental phase","yes","TalkFile_언어학과심리실험_B조_기말과제용심리실험.osexp.osexp","C:\Users\rober\OneDrive\Documents\Downloads","no","mono","no","18","no","black","no","yes","768","psycho","38","38","0","C:/Users/rober/OneDrive/바탕 화면/subject-2.csv","psycho","Lentiform Loewenfeld","3.3.14","no","악어","natural","similar-environmental","0","None","NA","n","NA","a","None","n","0.03270000024349429","NA","1463.4515000002284","NA","115769.36879999994","0.03270000024349429","9378.141099999979","2","psycho","1024","2","48000","-16","experiment","2","even","늪","natural","NA","250277.85459999996","137679.51159999985","137679.37110000002","NA","136214.05389999974","14882.24080000009","137678.19559999998","NA","249563.86930000008","14899.25089999997","259762.42569999976","259762.9898","130670.65400000001","249771.46080000012","NA","250383.0810999998","249554.41299999983","Extended template","0","1.3283000001392793","39","yes","1024"
"0","0","0.03391999999366817","0.03391999999366817","white","yes","psycho","psycho","psycho","0","uniform","0","undefined","0","x","1","0","42","1","1","0","0","0","0","NA","42","0","42","42","0","42","1","42","42","Tue Dec  5 17:32:56 2023","A template containing a practice and an experimental phase","yes","TalkFile_언어학과심리실험_B조_기말과제용심리실험.osexp.osexp","C:\Users\rober\OneDrive\Documents\Downloads","no","mono","no","18","no","black","no","yes","768","psycho","39","39","0","C:/Users/rober/OneDrive/바탕 화면/subject-2.csv","psycho","Lentiform Loewenfeld","3.3.14","no","폭풍","natural","non-word","0","None","NA","n","NA","a","None","x","0.028499999607447535","NA","1463.4515000002284","NA","115769.36879999994","0.028499999607447535","20728.84229999999","2","psycho","1024","2","48000","-16","experiment","2","even","섬강","non-word","NA","260637.76340000005","137679.51159999985","137679.37110000002","NA","136214.05389999974","14882.24080000009","137678.19559999998","NA","259923.70039999968","14899.25089999997","281474.04580000014","281474.56239999976","130670.65400000001","260132.63189999998","NA","260744.06120000003","259912.4035","Extended template","0","1.3567999997467268","40","yes","1024"
"0","0","0.03385365853531899","0.03385365853531899","white","yes","psycho","psycho","psycho","0","uniform","0","undefined","0","a","1","0","43","1","1","0","0","0","0","NA","43","0","43","43","0","43","1","43","43","Tue Dec  5 17:32:56 2023","A template containing a practice and an experimental phase","yes","TalkFile_언어학과심리실험_B조_기말과제용심리실험.osexp.osexp","C:\Users\rober\OneDrive\Documents\Downloads","no","mono","no","18","no","black","no","yes","768","psycho","40","40","0","C:/Users/rober/OneDrive/바탕 화면/subject-2.csv","psycho","Lentiform Loewenfeld","3.3.14","no","소나무","natural","same phoneme","0","None","NA","n","NA","a","None","a","0.03120000020135194","NA","1463.4515000002284","NA","115769.36879999994","0.03120000020135194","1029.8754000000772","2","psycho","1024","2","48000","-16","experiment","2","even","소방서","artifactual","NA","282345.89049999975","137679.51159999985","137679.37110000002","NA","136214.05389999974","14882.24080000009","137678.19559999998","NA","281632.4258999998","14899.25089999997","283483.41949999984","283484.0009999998","130670.65400000001","281841.1069999997","NA","282452.2988999997","281620.8984","Extended template","0","1.3879999999480788","41","yes","1024"
"0","0","0.03399523809882036","0.03399523809882036","white","yes","psycho","psycho","psycho","0","uniform","0","undefined","0","a","1","0","44","1","1","0","0","0","0","NA","44","0","44","44","0","44","1","44","44","Tue Dec  5 17:32:56 2023","A template containing a practice and an experimental phase","yes","TalkFile_언어학과심리실험_B조_기말과제용심리실험.osexp.osexp","C:\Users\rober\OneDrive\Documents\Downloads","no","mono","no","18","no","black","no","yes","768","psycho","41","41","0","C:/Users/rober/OneDrive/바탕 화면/subject-2.csv","psycho","Lentiform Loewenfeld","3.3.14","no","계곡","natural","no-correlation","0","None","NA","n","NA","a","None","a","0.039800000202376395","NA","1463.4515000002284","NA","115769.36879999994","0.039800000202376395","751.0103999997955","2","psycho","1024","2","48000","-16","experiment","2","even","화장실","artifactual","NA","284341.3367999997","137679.51159999985","137679.37110000002","NA","136214.05389999974","14882.24080000009","137678.19559999998","NA","283627.21119999967","14899.25089999997","285199.7366999999","285200.39700000006","130670.65400000001","283836.4200000001","NA","284447.02280000004","283619.3103999999","Extended template","0","1.4278000001504552","42","yes","1024"
"0","0","0.03387674419845584","0.03387674419845584","white","yes","psycho","psycho","psycho","0","uniform","0","undefined","0","a","1","0","45","1","1","0","0","0","0","NA","45","0","45","45","0","45","1","45","45","Tue Dec  5 17:32:56 2023","A template containing a practice and an experimental phase","yes","TalkFile_언어학과심리실험_B조_기말과제용심리실험.osexp.osexp","C:\Users\rober\OneDrive\Documents\Downloads","no","mono","no","18","no","black","no","yes","768","psycho","42","42","0","C:/Users/rober/OneDrive/바탕 화면/subject-2.csv","psycho","Lentiform Loewenfeld","3.3.14","no","시","artifactual","similar-environmental","0","None","NA","n","NA","a","None","a","0.028900000383146107","NA","1463.4515000002284","NA","115769.36879999994","0.028900000383146107","1144.5331000000006","2","psycho","1024","2","48000","-16","experiment","2","even","소설","artifactual","NA","286056.6835","137679.51159999985","137679.37110000002","NA","136214.05389999974","14882.24080000009","137678.19559999998","NA","285341.9335999997","14899.25089999997","287307.9310999997","287308.50250000006","130670.65400000001","285551.79099999985","NA","286162.2417999997","285333.286","Extended template","0","1.4567000005336013","43","yes","1024"
"0","0","0.03443863637816817","0.03443863637816817","white","yes","psycho","psycho","psycho","0","uniform","0","undefined","0","n","1","0","46","1","1","0","0","0","0","NA","46","0","46","46","0","46","1","46","46","Tue Dec  5 17:32:56 2023","A template containing a practice and an experimental phase","yes","TalkFile_언어학과심리실험_B조_기말과제용심리실험.osexp.osexp","C:\Users\rober\OneDrive\Documents\Downloads","no","mono","no","18","no","black","no","yes","768","psycho","43","43","0","C:/Users/rober/OneDrive/바탕 화면/subject-2.csv","psycho","Lentiform Loewenfeld","3.3.14","no","과일","natural","inclusive","0","None","NA","n","NA","a","None","n","0.058600000105798244","NA","1463.4515000002284","NA","115769.36879999994","0.058600000105798244","866.3760999998194","2","psycho","1024","2","48000","-16","experiment","2","even","사과","natural","NA","288197.7321999998","137679.51159999985","137679.37110000002","NA","136214.05389999974","14882.24080000009","137678.19559999998","NA","287483.1986999998","14899.25089999997","289172.2504999998","289173.08030000003","130670.65400000001","287692.3342999999","NA","288304.55449999997","287472.4532","Extended template","0","1.5153000006393995","44","yes","1024"
"0","0","0.03427111112008182","0.03427111112008182","white","yes","psycho","psycho","psycho","0","uniform","0","undefined","0","a","0","0","47","1","1","0","0","0","0","NA","47","0","47","47","0","47","1","47","47","Tue Dec  5 17:32:56 2023","A template containing a practice and an experimental phase","yes","TalkFile_언어학과심리실험_B조_기말과제용심리실험.osexp.osexp","C:\Users\rober\OneDrive\Documents\Downloads","no","mono","no","18","no","black","no","yes","768","psycho","44","44","0","C:/Users/rober/OneDrive/바탕 화면/subject-2.csv","psycho","Lentiform Loewenfeld","3.3.14","no","해변","natural","similar-environmental","0","None","NA","n","NA","a","None","x","0.026899999764282256","NA","1463.4515000002284","NA","115769.36879999994","0.026899999764282256","1052.9077999999863","2","psycho","1024","2","48000","-16","experiment","2","even","파라솔","artifactual","NA","290029.6819","137679.51159999985","137679.37110000002","NA","136214.05389999974","14882.24080000009","137678.19559999998","NA","289316.0410999999","14899.25089999997","291189.5267","291190.0840999997","130670.65400000001","289524.1544999999","NA","290135.4812999998","289307.25029999984","Extended template","0","1.5422000004036818","45","yes","1024"
"0","0","0.03592826088108426","0.03592826088108426","white","yes","psycho","psycho","psycho","0","uniform","0","undefined","0","n","1","0","48","1","1","0","0","0","0","NA","48","0","48","48","0","48","1","48","48","Tue Dec  5 17:32:56 2023","A template containing a practice and an experimental phase","yes","TalkFile_언어학과심리실험_B조_기말과제용심리실험.osexp.osexp","C:\Users\rober\OneDrive\Documents\Downloads","no","mono","no","18","no","black","no","yes","768","psycho","45","45","0","C:/Users/rober/OneDrive/바탕 화면/subject-2.csv","psycho","Lentiform Loewenfeld","3.3.14","no","세금","artifactual","same phoneme","0","None","NA","n","NA","a","None","n","0.11050000012619421","NA","1463.4515000002284","NA","115769.36879999994","0.11050000012619421","1026.9051999998628","2","psycho","1024","2","48000","-16","experiment","2","even","세포","natural","NA","292048.4778999998","137679.51159999985","137679.37110000002","NA","136214.05389999974","14882.24080000009","137678.19559999998","NA","291334.82909999974","14899.25089999997","293185.2948999999","293187.6675999997","130670.65400000001","291542.6198","NA","292154.1146","291325.68859999994","Extended template","0","1.652700000529876","46","yes","1024"
"0","0","0.035751063842945636","0.035751063842945636","white","yes","psycho","psycho","psycho","0","uniform","0","undefined","0","a","1","0","49","1","1","0","0","0","0","NA","49","0","49","49","0","49","1","49","49","Tue Dec  5 17:32:56 2023","A template containing a practice and an experimental phase","yes","TalkFile_언어학과심리실험_B조_기말과제용심리실험.osexp.osexp","C:\Users\rober\OneDrive\Documents\Downloads","no","mono","no","18","no","black","no","yes","768","psycho","46","46","0","C:/Users/rober/OneDrive/바탕 화면/subject-2.csv","psycho","Lentiform Loewenfeld","3.3.14","no","카메라","artifactual","inclusive","0","None","NA","n","NA","a","None","a","0.027600000088568777","NA","1463.4515000002284","NA","115769.36879999994","0.027600000088568777","600.5107999999309","2","psycho","1024","2","48000","-16","experiment","2","even","렌즈","artifactual","NA","294048.5721999999","137679.51159999985","137679.37110000002","NA","136214.05389999974","14882.24080000009","137678.19559999998","NA","293334.55499999993","14899.25089999997","294756.83509999997","294757.40469999984","130670.65400000001","293542.5188999998","NA","294155.05660000007","293325.64060000004","Extended template","0","1.6803000006184448","47","yes","1024"
"0","0","0.03558333334452376","0.03558333334452376","white","yes","psycho","psycho","psycho","0","uniform","0","undefined","0","a","0","0","50","1","1","0","0","0","0","NA","50","0","50","50","0","50","1","50","50","Tue Dec  5 17:32:56 2023","A template containing a practice and an experimental phase","yes","TalkFile_언어학과심리실험_B조_기말과제용심리실험.osexp.osexp","C:\Users\rober\OneDrive\Documents\Downloads","no","mono","no","18","no","black","no","yes","768","psycho","47","47","0","C:/Users/rober/OneDrive/바탕 화면/subject-2.csv","psycho","Lentiform Loewenfeld","3.3.14","no","학적","artifactual","same phoneme","0","None","NA","n","NA","a","None","n","0.02769999991869554","NA","1463.4515000002284","NA","115769.36879999994","0.02769999991869554","1043.926100000157","2","psycho","1024","2","48000","-16","experiment","2","even","학술","artifactual","NA","295616.65379999974","137679.51159999985","137679.37110000002","NA","136214.05389999974","14882.24080000009","137678.19559999998","NA","294903.8056999998","14899.25089999997","296767.70450000005","296768.31029999995","130670.65400000001","295111.7779000001","NA","295722.55529999983","294895.5318999997","Extended template","0","1.7080000005371403","48","yes","1024"
"0","0","0.03546530613378736","0.03546530613378736","white","yes","psycho","psycho","psycho","0","uniform","0","undefined","0","n","1","0","51","1","1","0","0","0","0","NA","51","0","51","51","0","51","1","51","51","Tue Dec  5 17:32:56 2023","A template containing a practice and an experimental phase","yes","TalkFile_언어학과심리실험_B조_기말과제용심리실험.osexp.osexp","C:\Users\rober\OneDrive\Documents\Downloads","no","mono","no","18","no","black","no","yes","768","psycho","48","48","0","C:/Users/rober/OneDrive/바탕 화면/subject-2.csv","psycho","Lentiform Loewenfeld","3.3.14","no","스노우보드","artifactual","no-correlation","0","None","NA","n","NA","a","None","n","0.029800000018440187","NA","1463.4515000002284","NA","115769.36879999994","0.029800000018440187","745.8129999999655","2","psycho","1024","2","48000","-16","experiment","2","even","꽃","natural","NA","297660.0976","137679.51159999985","137679.37110000002","NA","136214.05389999974","14882.24080000009","137678.19559999998","NA","296946.49049999996","14899.25089999997","298512.86290000007","298513.47289999964","130670.65400000001","297153.8370999997","NA","297765.7022999997","296936.79380000004","Extended template","0","1.7378000005555805","49","yes","1024"
"0","0","0.03542400001373608","0.03542400001373608","white","yes","psycho","psycho","psycho","0","uniform","0","undefined","0","n","1","0","52","1","1","0","0","0","0","NA","52","0","52","52","0","52","1","52","52","Tue Dec  5 17:32:56 2023","A template containing a practice and an experimental phase","yes","TalkFile_언어학과심리실험_B조_기말과제용심리실험.osexp.osexp","C:\Users\rober\OneDrive\Documents\Downloads","no","mono","no","18","no","black","no","yes","768","psycho","49","49","0","C:/Users/rober/OneDrive/바탕 화면/subject-2.csv","psycho","Lentiform Loewenfeld","3.3.14","no","호랑이","natural","same phoneme","0","None","NA","n","NA","a","None","n","0.03340000013122335","NA","1463.4515000002284","NA","115769.36879999994","0.03340000013122335","629.9598000000697","2","psycho","1024","2","48000","-16","experiment","2","even","호수","natural","NA","299370.8486","137679.51159999985","137679.37110000002","NA","136214.05389999974","14882.24080000009","137678.19559999998","NA","298656.4951999999","14899.25089999997","300107.7043999999","300109.1183999997","130670.65400000001","298864.77479999984","NA","299476.4986","298648.46450000006","Extended template","0","1.7712000006868038","50","yes","1024"
"0","0","0.03700588236724976","0.03700588236724976","white","yes","psycho","psycho","psycho","0","uniform","0","undefined","0","n","1","0","53","1","1","0","0","0","0","NA","53","0","53","53","0","53","1","53","53","Tue Dec  5 17:32:56 2023","A template containing a practice and an experimental phase","yes","TalkFile_언어학과심리실험_B조_기말과제용심리실험.osexp.osexp","C:\Users\rober\OneDrive\Documents\Downloads","no","mono","no","18","no","black","no","yes","768","psycho","50","50","0","C:/Users/rober/OneDrive/바탕 화면/subject-2.csv","psycho","Lentiform Loewenfeld","3.3.14","no","다리","artifactual","similar-environmental","0","None","NA","n","NA","a","None","n","0.11610000004293397","NA","1463.4515000002284","NA","115769.36879999994","0.11610000004293397","515.4643999999389","2","psycho","1024","2","48000","-16","experiment","2","even","강","natural","NA","300964.2617","137679.51159999985","137679.37110000002","NA","136214.05389999974","14882.24080000009","137678.19559999998","NA","300251.2300999997","14899.25089999997","301594.02339999995","301597.3025999997","130670.65400000001","300459.52549999993","NA","301069.6481","300243.32439999987","Extended template","0","1.8873000007297378","51","yes","1024"
"0","0","0.03699807693472114","0.03699807693472114","white","yes","psycho","psycho","psycho","0","uniform","0","undefined","0","a","1","0","54","1","1","0","0","0","0","NA","54","0","54","54","0","54","1","54","54","Tue Dec  5 17:32:56 2023","A template containing a practice and an experimental phase","yes","TalkFile_언어학과심리실험_B조_기말과제용심리실험.osexp.osexp","C:\Users\rober\OneDrive\Documents\Downloads","no","mono","no","18","no","black","no","yes","768","psycho","51","51","0","C:/Users/rober/OneDrive/바탕 화면/subject-2.csv","psycho","Lentiform Loewenfeld","3.3.14","no","로봇","artifactual","same phoneme","0","None","NA","n","NA","a","None","a","0.03659999987576157","NA","1463.4515000002284","NA","115769.36879999994","0.03659999987576157","565.9258999999147","2","psycho","1024","2","48000","-16","experiment","2","even","로켓","artifactual","NA","302487.5176999999","137679.51159999985","137679.37110000002","NA","136214.05389999974","14882.24080000009","137678.19559999998","NA","301774.3299999997","14899.25089999997","303164.12029999995","303164.85839999997","130670.65400000001","301982.40009999974","NA","302596.71329999994","301766.0808999999","Extended template","0","1.9239000006054994","52","yes","1024"
"0","0","0.03691698114864335","0.03691698114864335","white","yes","psycho","psycho","psycho","0","uniform","0","undefined","0","n","1","0","55","1","1","0","0","0","0","NA","55","0","55","55","0","55","1","55","55","Tue Dec  5 17:32:56 2023","A template containing a practice and an experimental phase","yes","TalkFile_언어학과심리실험_B조_기말과제용심리실험.osexp.osexp","C:\Users\rober\OneDrive\Documents\Downloads","no","mono","no","18","no","black","no","yes","768","psycho","52","52","0","C:/Users/rober/OneDrive/바탕 화면/subject-2.csv","psycho","Lentiform Loewenfeld","3.3.14","no","스노우보드","artifactual","no-correlation","0","None","NA","n","NA","a","None","n","0.03270000027259812","NA","1463.4515000002284","NA","115769.36879999994","0.03270000027259812","517.1029999997118","2","psycho","1024","2","48000","-16","experiment","2","even","소나무","natural","NA","304044.21219999995","137679.51159999985","137679.37110000002","NA","136214.05389999974","14882.24080000009","137678.19559999998","NA","303329.9045999997","14899.25089999997","304668.3301999997","304669.03060000006","130670.65400000001","303538.3357999999","NA","304149.8716000001","303321.08960000006","Extended template","0","1.9566000008780975","53","yes","1024"
"0","0","0.037475925938687635","0.037475925938687635","white","yes","psycho","psycho","psycho","0","uniform","0","undefined","0","n","1","0","56","1","1","0","0","0","0","NA","56","0","56","56","0","56","1","56","56","Tue Dec  5 17:32:56 2023","A template containing a practice and an experimental phase","yes","TalkFile_언어학과심리실험_B조_기말과제용심리실험.osexp.osexp","C:\Users\rober\OneDrive\Documents\Downloads","no","mono","no","18","no","black","no","yes","768","psycho","53","53","0","C:/Users/rober/OneDrive/바탕 화면/subject-2.csv","psycho","Lentiform Loewenfeld","3.3.14","no","모래","natural","similar-environmental","0","None","NA","n","NA","a","None","n","0.06709999981103465","NA","1463.4515000002284","NA","115769.36879999994","0.06709999981103465","658.6559000002453","2","psycho","1024","2","48000","-16","experiment","2","even","자갈","natural","NA","305540.3240000001","137679.51159999985","137679.37110000002","NA","136214.05389999974","14882.24080000009","137678.19559999998","NA","304827.2595999997","14899.25089999997","306308.13089999993","306309.0548999999","130670.65400000001","305034.73959999974","NA","305646.5353999997","304818.85269999976","Extended template","0","2.023700000689132","54","yes","1024"
"0","0","0.037370909110706466","0.037370909110706466","white","yes","psycho","psycho","psycho","0","uniform","0","undefined","0","a","0","0","57","1","1","0","0","0","0","NA","57","0","57","57","0","57","1","57","57","Tue Dec  5 17:32:56 2023","A template containing a practice and an experimental phase","yes","TalkFile_언어학과심리실험_B조_기말과제용심리실험.osexp.osexp","C:\Users\rober\OneDrive\Documents\Downloads","no","mono","no","18","no","black","no","yes","768","psycho","54","54","0","C:/Users/rober/OneDrive/바탕 화면/subject-2.csv","psycho","Lentiform Loewenfeld","3.3.14","no","구름","natural","same phoneme","0","None","NA","n","NA","a","None","n","0.03170000039972365","NA","1463.4515000002284","NA","115769.36879999994","0.03170000039972365","481.2679000001517","2","psycho","1024","2","48000","-16","experiment","2","even","구두","artifactual","NA","307196.56779999967","137679.51159999985","137679.37110000002","NA","136214.05389999974","14882.24080000009","137678.19559999998","NA","306482.19789999985","14899.25089999997","307784.8077999997","307785.5491999999","130670.65400000001","306691.02729999984","NA","307302.1868999999","306472.3507999997","Extended template","0","2.055400001088856","55","yes","1024"
"0","0","0.03759642859274338","0.03759642859274338","white","yes","psycho","psycho","psycho","0","uniform","0","undefined","0","n","1","0","58","1","1","0","0","0","0","NA","58","0","58","58","0","58","1","58","58","Tue Dec  5 17:32:56 2023","A template containing a practice and an experimental phase","yes","TalkFile_언어학과심리실험_B조_기말과제용심리실험.osexp.osexp","C:\Users\rober\OneDrive\Documents\Downloads","no","mono","no","18","no","black","no","yes","768","psycho","55","55","0","C:/Users/rober/OneDrive/바탕 화면/subject-2.csv","psycho","Lentiform Loewenfeld","3.3.14","no","패딩","artifactual","similar-environmental","0","None","NA","n","NA","a","None","n","0.05000000010477379","NA","1463.4515000002284","NA","115769.36879999994","0.05000000010477379","496.1169999996782","2","psycho","1024","2","48000","-16","experiment","2","even","겨울","natural","NA","308684.9395999998","137679.51159999985","137679.37110000002","NA","136214.05389999974","14882.24080000009","137678.19559999998","NA","307970.1264999999","14899.25089999997","309288.40899999975","309289.3905999999","130670.65400000001","308180.0405999998","NA","308790.7964000001","307961.51469999994","Extended template","0","2.1054000011936296","56","yes","1024"
"0","0","0.03749122809191855","0.03749122809191855","white","yes","psycho","psycho","psycho","0","uniform","0","undefined","0","n","1","0","59","1","1","0","0","0","0","NA","59","0","59","59","0","59","1","59","59","Tue Dec  5 17:32:56 2023","A template containing a practice and an experimental phase","yes","TalkFile_언어학과심리실험_B조_기말과제용심리실험.osexp.osexp","C:\Users\rober\OneDrive\Documents\Downloads","no","mono","no","18","no","black","no","yes","768","psycho","56","56","0","C:/Users/rober/OneDrive/바탕 화면/subject-2.csv","psycho","Lentiform Loewenfeld","3.3.14","no","항구","artifactual","similar-environmental","0","None","NA","n","NA","a","None","n","0.03160000004572794","NA","1463.4515000002284","NA","115769.36879999994","0.03160000004572794","550.9191999999457","2","psycho","1024","2","48000","-16","experiment","2","even","바다","natural","NA","310147.3627999999","137679.51159999985","137679.37110000002","NA","136214.05389999974","14882.24080000009","137678.19559999998","NA","309432.36410000006","14899.25089999997","310805.4745999998","310806.15439999977","130670.65400000001","309642.0938000001","NA","310252.7528999999","309424.4144999998","Extended template","0","2.1370000012393575","57","yes","1024"
"0","0","0.03730862071498795","0.03730862071498795","white","yes","psycho","psycho","psycho","0","uniform","0","undefined","0","n","1","0","60","1","1","0","0","0","0","NA","60","0","60","60","0","60","1","60","60","Tue Dec  5 17:32:56 2023","A template containing a practice and an experimental phase","yes","TalkFile_언어학과심리실험_B조_기말과제용심리실험.osexp.osexp","C:\Users\rober\OneDrive\Documents\Downloads","no","mono","no","18","no","black","no","yes","768","psycho","57","57","0","C:/Users/rober/OneDrive/바탕 화면/subject-2.csv","psycho","Lentiform Loewenfeld","3.3.14","no","산","natural","similar-environmental","0","None","NA","n","NA","a","None","n","0.026900000229943544","NA","1463.4515000002284","NA","115769.36879999994","0.026900000229943544","537.2375000002212","2","psycho","1024","2","48000","-16","experiment","2","even","계곡","natural","NA","311667.57479999977","137679.51159999985","137679.37110000002","NA","136214.05389999974","14882.24080000009","137678.19559999998","NA","310954.84399999987","14899.25089999997","312312.3416999997","312313.0007","130670.65400000001","311162.9044000001","NA","311773.8175999998","310946.80650000006","Extended template","0","2.163900001469301","58","yes","1024"
"0","0","0.03716779663967426","0.03716779663967426","white","yes","psycho","psycho","psycho","0","uniform","0","undefined","0","a","1","0","61","1","1","0","0","0","0","NA","61","0","61","61","0","61","1","61","61","Tue Dec  5 17:32:56 2023","A template containing a practice and an experimental phase","yes","TalkFile_언어학과심리실험_B조_기말과제용심리실험.osexp.osexp","C:\Users\rober\OneDrive\Documents\Downloads","no","mono","no","18","no","black","no","yes","768","psycho","58","58","0","C:/Users/rober/OneDrive/바탕 화면/subject-2.csv","psycho","Lentiform Loewenfeld","3.3.14","no","호수","natural","no-correlation","0","None","NA","n","NA","a","None","a","0.02900000027148053","NA","1463.4515000002284","NA","115769.36879999994","0.02900000027148053","615.5507000003126","2","psycho","1024","2","48000","-16","experiment","2","even","대학교","artifactual","NA","313167.24410000007","137679.51159999985","137679.37110000002","NA","136214.05389999974","14882.24080000009","137678.19559999998","NA","312452.96129999997","14899.25089999997","313890.1864999998","313890.91409999994","130670.65400000001","312662.7536000001","NA","313273.1166999997","312444.54790000006","Extended template","0","2.1929000017407816","59","yes","1024"
"0","0","0.037033333364039814","0.037033333364039814","white","yes","psycho","psycho","psycho","0","uniform","0","undefined","0","a","1","0","62","1","1","0","0","0","0","NA","62","0","62","62","0","62","1","62","62","Tue Dec  5 17:32:56 2023","A template containing a practice and an experimental phase","yes","TalkFile_언어학과심리실험_B조_기말과제용심리실험.osexp.osexp","C:\Users\rober\OneDrive\Documents\Downloads","no","mono","no","18","no","black","no","yes","768","psycho","59","59","0","C:/Users/rober/OneDrive/바탕 화면/subject-2.csv","psycho","Lentiform Loewenfeld","3.3.14","no","기계","artifactual","inclusive","0","None","NA","n","NA","a","None","a","0.029100000101607293","NA","1463.4515000002284","NA","115769.36879999994","0.029100000101607293","545.079000000027","2","psycho","1024","2","48000","-16","experiment","2","even","컴퓨터","artifactual","NA","314746.34119999973","137679.51159999985","137679.37110000002","NA","136214.05389999974","14882.24080000009","137678.19559999998","NA","314032.70410000003","14899.25089999997","315398.16699999984","315398.8765999998","130670.65400000001","314241.37999999995","NA","314851.7134999997","314024.61790000007","Extended template","0","2.222000001842389","60","yes","1024"
"0","0","0.03687377052322473","0.03687377052322473","white","yes","psycho","psycho","psycho","0","uniform","0","undefined","0","n","1","0","63","1","1","0","0","0","0","NA","63","0","63","63","0","63","1","63","63","Tue Dec  5 17:32:56 2023","A template containing a practice and an experimental phase","yes","TalkFile_언어학과심리실험_B조_기말과제용심리실험.osexp.osexp","C:\Users\rober\OneDrive\Documents\Downloads","no","mono","no","18","no","black","no","yes","768","psycho","60","60","0","C:/Users/rober/OneDrive/바탕 화면/subject-2.csv","psycho","Lentiform Loewenfeld","3.3.14","no","풍차","artifactual","no-correlation","0","None","NA","n","NA","a","None","n","0.02730000007431954","NA","1463.4515000002284","NA","115769.36879999994","0.02730000007431954","555.6538000000874","2","psycho","1024","2","48000","-16","experiment","2","even","흙","natural","NA","316262.3190999998","137679.51159999985","137679.37110000002","NA","136214.05389999974","14882.24080000009","137678.19559999998","NA","315549.1968000001","14899.25089999997","316924.63169999974","316925.3195000001","130670.65400000001","315757.11950000003","NA","316367.6845","315540.9209999998","Extended template","0","2.2493000019167084","61","yes","1024"
"0","0","0.036737096809027266","0.036737096809027266","white","yes","psycho","psycho","psycho","0","uniform","0","undefined","0","a","1","0","64","1","1","0","0","0","0","NA","64","0","64","64","0","64","1","64","64","Tue Dec  5 17:32:56 2023","A template containing a practice and an experimental phase","yes","TalkFile_언어학과심리실험_B조_기말과제용심리실험.osexp.osexp","C:\Users\rober\OneDrive\Documents\Downloads","no","mono","no","18","no","black","no","yes","768","psycho","61","61","0","C:/Users/rober/OneDrive/바탕 화면/subject-2.csv","psycho","Lentiform Loewenfeld","3.3.14","no","경주","artifactual","no-correlation","0","None","NA","n","NA","a","None","a","0.02840000024298206","NA","1463.4515000002284","NA","115769.36879999994","0.02840000024298206","639.5413000000408","2","psycho","1024","2","48000","-16","experiment","2","even","버스","artifactual","NA","317781.7599","137679.51159999985","137679.37110000002","NA","136214.05389999974","14882.24080000009","137678.19559999998","NA","317066.7994","14899.25089999997","318529.0495999998","318529.7511999997","130670.65400000001","317275.61160000006","NA","317887.7275999998","317058.58279999986","Extended template","0","2.2777000021596905","62","yes","1024"
"0","0","0.03663174606654571","0.03663174606654571","white","yes","psycho","psycho","psycho","0","uniform","0","undefined","0","n","1","0","65","1","1","0","0","0","0","NA","65","0","65","65","0","65","1","65","65","Tue Dec  5 17:32:56 2023","A template containing a practice and an experimental phase","yes","TalkFile_언어학과심리실험_B조_기말과제용심리실험.osexp.osexp","C:\Users\rober\OneDrive\Documents\Downloads","no","mono","no","18","no","black","no","yes","768","psycho","62","62","0","C:/Users/rober/OneDrive/바탕 화면/subject-2.csv","psycho","Lentiform Loewenfeld","3.3.14","no","물고기","natural","inclusive","0","None","NA","n","NA","a","None","n","0.030100000032689422","NA","1463.4515000002284","NA","115769.36879999994","0.030100000032689422","650.2178999998723","2","psycho","1024","2","48000","-16","experiment","2","even","연어","natural","NA","319386.40050000005","137679.51159999985","137679.37110000002","NA","136214.05389999974","14882.24080000009","137678.19559999998","NA","318673.7453999999","14899.25089999997","320144.1239999999","320144.9877","130670.65400000001","318881.6294999997","NA","319492.46799999994","318664.24199999985","Extended template","0","2.30780000219238","63","yes","1024"
"0","0","0.03652187503166715","0.03652187503166715","white","yes","psycho","psycho","psycho","0","uniform","0","undefined","0","n","1","0","66","1","1","0","0","0","0","NA","66","0","66","66","0","66","1","66","66","Tue Dec  5 17:32:56 2023","A template containing a practice and an experimental phase","yes","TalkFile_언어학과심리실험_B조_기말과제용심리실험.osexp.osexp","C:\Users\rober\OneDrive\Documents\Downloads","no","mono","no","18","no","black","no","yes","768","psycho","63","63","0","C:/Users/rober/OneDrive/바탕 화면/subject-2.csv","psycho","Lentiform Loewenfeld","3.3.14","no","보트","artifactual","same phoneme","0","None","NA","n","NA","a","None","n","0.029599999834317714","NA","1463.4515000002284","NA","115769.36879999994","0.029599999834317714","547.8360999996075","2","psycho","1024","2","48000","-16","experiment","2","even","보름달","natural","NA","321004.7120999998","137679.51159999985","137679.37110000002","NA","136214.05389999974","14882.24080000009","137678.19559999998","NA","320290.83949999994","14899.25089999997","321659.74830000004","321660.5353999998","130670.65400000001","320499.3632999999","NA","321110.4752000001","320280.7539","Extended template","0","2.3374000020266976","64","yes","1024"
"0","0","0.036387692335008","0.036387692335008","white","yes","psycho","psycho","psycho","0","uniform","0","undefined","0","x","1","0","67","1","1","0","0","0","0","NA","67","0","67","67","0","67","1","67","67","Tue Dec  5 17:32:56 2023","A template containing a practice and an experimental phase","yes","TalkFile_언어학과심리실험_B조_기말과제용심리실험.osexp.osexp","C:\Users\rober\OneDrive\Documents\Downloads","no","mono","no","18","no","black","no","yes","768","psycho","64","64","0","C:/Users/rober/OneDrive/바탕 화면/subject-2.csv","psycho","Lentiform Loewenfeld","3.3.14","no","냉장고","artifactual","non-word","0","None","NA","n","NA","a","None","x","0.0277999997488223","NA","1463.4515000002284","NA","115769.36879999994","0.0277999997488223","1075.7737999997335","2","psycho","1024","2","48000","-16","experiment","2","even","로방삭","non-word","NA","322520.8081999999","137679.51159999985","137679.37110000002","NA","136214.05389999974","14882.24080000009","137678.19559999998","NA","321807.0683000001","14899.25089999997","323703.55999999994","323704.28249999986","130670.65400000001","322014.90879999986","NA","322626.43759999995","321797.88169999985","Extended template","0","2.36520000177552","65","yes","1024"
"0","0","0.036304545484282164","0.036304545484282164","white","yes","psycho","psycho","psycho","0","uniform","0","undefined","0","a","1","0","68","1","1","0","0","0","0","NA","68","0","68","68","0","68","1","68","68","Tue Dec  5 17:32:56 2023","A template containing a practice and an experimental phase","yes","TalkFile_언어학과심리실험_B조_기말과제용심리실험.osexp.osexp","C:\Users\rober\OneDrive\Documents\Downloads","no","mono","no","18","no","black","no","yes","768","psycho","65","65","0","C:/Users/rober/OneDrive/바탕 화면/subject-2.csv","psycho","Lentiform Loewenfeld","3.3.14","no","건물","artifactual","inclusive","0","None","NA","n","NA","a","None","a","0.030900000187102705","NA","1463.4515000002284","NA","115769.36879999994","0.030900000187102705","947.8976999998558","2","psycho","1024","2","48000","-16","experiment","2","even","병원","artifactual","NA","324567.7431999998","137679.51159999985","137679.37110000002","NA","136214.05389999974","14882.24080000009","137678.19559999998","NA","323853.9701","14899.25089999997","325623.8205999998","325624.67609999975","130670.65400000001","324062.26719999994","NA","324674.4859999999","323845.19779999985","Extended template","0","2.3961000019626226","66","yes","1024"
"0","0","0.036552238833670044","0.036552238833670044","white","yes","psycho","psycho","psycho","0","uniform","0","undefined","0","a","1","0","69","1","1","0","0","0","0","NA","69","0","69","69","0","69","1","69","69","Tue Dec  5 17:32:56 2023","A template containing a practice and an experimental phase","yes","TalkFile_언어학과심리실험_B조_기말과제용심리실험.osexp.osexp","C:\Users\rober\OneDrive\Documents\Downloads","no","mono","no","18","no","black","no","yes","768","psycho","66","66","0","C:/Users/rober/OneDrive/바탕 화면/subject-2.csv","psycho","Lentiform Loewenfeld","3.3.14","no","마우스","artifactual","no-correlation","0","None","NA","n","NA","a","None","a","0.05289999989327043","NA","1463.4515000002284","NA","115769.36879999994","0.05289999989327043","670.5469000003068","2","psycho","1024","2","48000","-16","experiment","2","even","모자","artifactual","NA","326482.5858999998","137679.51159999985","137679.37110000002","NA","136214.05389999974","14882.24080000009","137678.19559999998","NA","325768.6071999997","14899.25089999997","327261.7562999999","327263.69509999995","130670.65400000001","325977.73219999997","NA","326588.5973999998","325759.3793000001","Extended template","0","2.449000001855893","67","yes","1024"
"0","0","0.036475000027755465","0.036475000027755465","white","yes","psycho","psycho","psycho","0","uniform","0","undefined","0","a","1","0","70","1","1","0","0","0","0","NA","70","0","70","70","0","70","1","70","70","Tue Dec  5 17:32:56 2023","A template containing a practice and an experimental phase","yes","TalkFile_언어학과심리실험_B조_기말과제용심리실험.osexp.osexp","C:\Users\rober\OneDrive\Documents\Downloads","no","mono","no","18","no","black","no","yes","768","psycho","67","67","0","C:/Users/rober/OneDrive/바탕 화면/subject-2.csv","psycho","Lentiform Loewenfeld","3.3.14","no","피자","artifactual","similar-environmental","0","None","NA","n","NA","a","None","a","0.0313000000314787","NA","1463.4515000002284","NA","115769.36879999994","0.0313000000314787","760.5725000003004","2","psycho","1024","2","48000","-16","experiment","2","even","파스타","artifactual","NA","328537.7309","137679.51159999985","137679.37110000002","NA","136214.05389999974","14882.24080000009","137678.19559999998","NA","327809.7195","14899.25089999997","329407.1694999998","329408.0574999998","130670.65400000001","328024.33059999975","NA","328645.0953999997","327797.77680000005","Extended template","0","2.4803000018873718","68","yes","1024"
"0","0","0.036362318871660915","0.036362318871660915","white","yes","psycho","psycho","psycho","0","uniform","0","undefined","0","n","1","0","71","1","1","0","0","0","0","NA","71","0","71","71","0","71","1","71","71","Tue Dec  5 17:32:56 2023","A template containing a practice and an experimental phase","yes","TalkFile_언어학과심리실험_B조_기말과제용심리실험.osexp.osexp","C:\Users\rober\OneDrive\Documents\Downloads","no","mono","no","18","no","black","no","yes","768","psycho","68","68","0","C:/Users/rober/OneDrive/바탕 화면/subject-2.csv","psycho","Lentiform Loewenfeld","3.3.14","no","곡물","natural","inclusive","0","None","NA","n","NA","a","None","n","0.028700000257231295","NA","1463.4515000002284","NA","115769.36879999994","0.028700000257231295","682.4203000001144","2","psycho","1024","2","48000","-16","experiment","2","even","밀","natural","NA","330264.88549999974","137679.51159999985","137679.37110000002","NA","136214.05389999974","14882.24080000009","137678.19559999998","NA","329551.0383999999","14899.25089999997","331054.8018999998","331055.61149999994","130670.65400000001","329758.86009999976","NA","330370.97059999994","329542.1118999998","Extended template","0","2.509000002144603","69","yes","1024"
"0","0","0.03626857145947204","0.03626857145947204","white","yes","psycho","psycho","psycho","0","uniform","0","undefined","0","n","1","0","72","1","1","0","0","0","0","NA","72","0","72","72","0","72","1","72","72","Tue Dec  5 17:32:56 2023","A template containing a practice and an experimental phase","yes","TalkFile_언어학과심리실험_B조_기말과제용심리실험.osexp.osexp","C:\Users\rober\OneDrive\Documents\Downloads","no","mono","no","18","no","black","no","yes","768","psycho","69","69","0","C:/Users/rober/OneDrive/바탕 화면/subject-2.csv","psycho","Lentiform Loewenfeld","3.3.14","no","태양","natural","same phoneme","0","None","NA","n","NA","a","None","n","0.029800000018440187","NA","1463.4515000002284","NA","115769.36879999994","0.029800000018440187","664.9664000001503","2","psycho","1024","2","48000","-16","experiment","2","even","태풍","natural","NA","331914.9411999997","137679.51159999985","137679.37110000002","NA","136214.05389999974","14882.24080000009","137678.19559999998","NA","331198.31169999996","14899.25089999997","332688.0799999999","332688.9160999999","130670.65400000001","331409.3625999999","NA","332021.7085999998","331189.6176999999","Extended template","0","2.5388000021630432","70","yes","1024"
"0","0","0.03713239439800841","0.03713239439800841","white","yes","psycho","psycho","psycho","0","uniform","0","undefined","0","a","1","0","73","1","1","0","0","0","0","NA","73","0","73","73","0","73","1","73","73","Tue Dec  5 17:32:56 2023","A template containing a practice and an experimental phase","yes","TalkFile_언어학과심리실험_B조_기말과제용심리실험.osexp.osexp","C:\Users\rober\OneDrive\Documents\Downloads","no","mono","no","18","no","black","no","yes","768","psycho","70","70","0","C:/Users/rober/OneDrive/바탕 화면/subject-2.csv","psycho","Lentiform Loewenfeld","3.3.14","no","가방","artifactual","no-correlation","0","None","NA","n","NA","a","None","a","0.0976000000955537","NA","1463.4515000002284","NA","115769.36879999994","0.0976000000955537","535.9497999997693","2","psycho","1024","2","48000","-16","experiment","2","even","기차","artifactual","NA","333554.6697999998","137679.51159999985","137679.37110000002","NA","136214.05389999974","14882.24080000009","137678.19559999998","NA","332840.18089999974","14899.25089999997","334198.5921999999","334200.18519999983","130670.65400000001","333048.8783000001","NA","333660.51229999994","332830.0301999998","Extended template","0","2.636400002258597","71","yes","1024"
"0","0","0.03786111114418923","0.03786111114418923","white","yes","psycho","psycho","psycho","0","uniform","0","undefined","0","n","1","0","74","1","1","0","0","0","0","NA","74","0","74","74","0","74","1","74","74","Tue Dec  5 17:32:56 2023","A template containing a practice and an experimental phase","yes","TalkFile_언어학과심리실험_B조_기말과제용심리실험.osexp.osexp","C:\Users\rober\OneDrive\Documents\Downloads","no","mono","no","18","no","black","no","yes","768","psycho","71","71","0","C:/Users/rober/OneDrive/바탕 화면/subject-2.csv","psycho","Lentiform Loewenfeld","3.3.14","no","물고기","natural","no-correlation","0","None","NA","n","NA","a","None","n","0.08960000012302771","NA","1463.4515000002284","NA","115769.36879999994","0.08960000012302771","532.7655999999843","2","psycho","1024","2","48000","-16","experiment","2","even","밤하늘","natural","NA","335058.0909","137679.51159999985","137679.37110000002","NA","136214.05389999974","14882.24080000009","137678.19559999998","NA","334341.80119999975","14899.25089999997","335698.16919999995","335699.8908999999","130670.65400000001","334552.5333999999","NA","335163.7252999999","334333.00139999983","Extended template","0","2.7260000023816247","72","yes","1024"
"0","0","0.03771369866125783","0.03771369866125783","white","yes","psycho","psycho","psycho","0","uniform","0","undefined","0","n","1","0","75","1","1","0","0","0","0","NA","75","0","75","75","0","75","1","75","75","Tue Dec  5 17:32:56 2023","A template containing a practice and an experimental phase","yes","TalkFile_언어학과심리실험_B조_기말과제용심리실험.osexp.osexp","C:\Users\rober\OneDrive\Documents\Downloads","no","mono","no","18","no","black","no","yes","768","psycho","72","72","0","C:/Users/rober/OneDrive/바탕 화면/subject-2.csv","psycho","Lentiform Loewenfeld","3.3.14","no","꽃","natural","inclusive","0","None","NA","n","NA","a","None","n","0.02709999989019707","NA","1463.4515000002284","NA","115769.36879999994","0.02709999989019707","464.9826999998768","2","psycho","1024","2","48000","-16","experiment","2","even","해바라기","natural","NA","336566.4372000001","137679.51159999985","137679.37110000002","NA","136214.05389999974","14882.24080000009","137678.19559999998","NA","335852.3645","14899.25089999997","337138.6938999999","337139.5232","130670.65400000001","336060.8997999998","NA","336672.3022000001","335843.42079999985","Extended template","0","2.7531000022718217","73","yes","1024"
"0","0","0.037578378407979965","0.037578378407979965","white","yes","psycho","psycho","psycho","0","uniform","0","undefined","0","n","1","0","76","1","1","0","0","0","0","NA","76","0","76","76","0","76","1","76","76","Tue Dec  5 17:32:56 2023","A template containing a practice and an experimental phase","yes","TalkFile_언어학과심리실험_B조_기말과제용심리실험.osexp.osexp","C:\Users\rober\OneDrive\Documents\Downloads","no","mono","no","18","no","black","no","yes","768","psycho","73","73","0","C:/Users/rober/OneDrive/바탕 화면/subject-2.csv","psycho","Lentiform Loewenfeld","3.3.14","no","언덕","natural","no-correlation","0","None","NA","n","NA","a","None","n","0.02769999991869554","NA","1463.4515000002284","NA","115769.36879999994","0.02769999991869554","494.7996999999159","2","psycho","1024","2","48000","-16","experiment","2","even","고양이","natural","NA","337997.7813999999","137679.51159999985","137679.37110000002","NA","136214.05389999974","14882.24080000009","137678.19559999998","NA","337283.01030000014","14899.25089999997","338599.8890000001","338600.76469999965","130670.65400000001","337490.8949000001","NA","338103.65409999987","337274.3582999997","Extended template","0","2.7808000021905173","74","yes","1024"
"0","0","0.03749333336522492","0.03749333336522492","white","yes","psycho","psycho","psycho","0","uniform","0","undefined","0","n","1","0","77","1","1","0","0","0","0","NA","77","0","77","77","0","77","1","77","77","Tue Dec  5 17:32:56 2023","A template containing a practice and an experimental phase","yes","TalkFile_언어학과심리실험_B조_기말과제용심리실험.osexp.osexp","C:\Users\rober\OneDrive\Documents\Downloads","no","mono","no","18","no","black","no","yes","768","psycho","74","74","0","C:/Users/rober/OneDrive/바탕 화면/subject-2.csv","psycho","Lentiform Loewenfeld","3.3.14","no","밤하늘","natural","no-correlation","0","None","NA","n","NA","a","None","n","0.03120000020135194","NA","1463.4515000002284","NA","115769.36879999994","0.03120000020135194","614.9116999999969","2","psycho","1024","2","48000","-16","experiment","2","even","바위","natural","NA","339466.45269999997","137679.51159999985","137679.37110000002","NA","136214.05389999974","14882.24080000009","137678.19559999998","NA","338752.9814999998","14899.25089999997","340188.7680999998","340189.68229999975","130670.65400000001","338960.98170000006","NA","339572.3124000001","338743.08569999994","Extended template","0","2.812000002391869","75","yes","1024"
"0","0","0.037397368450719545","0.037397368450719545","white","yes","psycho","psycho","psycho","0","uniform","0","undefined","0","a","1","0","78","1","1","0","0","0","0","NA","78","0","78","78","0","78","1","78","78","Tue Dec  5 17:32:56 2023","A template containing a practice and an experimental phase","yes","TalkFile_언어학과심리실험_B조_기말과제용심리실험.osexp.osexp","C:\Users\rober\OneDrive\Documents\Downloads","no","mono","no","18","no","black","no","yes","768","psycho","75","75","0","C:/Users/rober/OneDrive/바탕 화면/subject-2.csv","psycho","Lentiform Loewenfeld","3.3.14","no","컴퓨터","artifactual","similar-environmental","0","None","NA","n","NA","a","None","a","0.030199999862816185","NA","1463.4515000002284","NA","115769.36879999994","0.030199999862816185","532.6765000004671","2","psycho","1024","2","48000","-16","experiment","2","even","키보드","artifactual","NA","341050.7259000001","137679.51159999985","137679.37110000002","NA","136214.05389999974","14882.24080000009","137678.19559999998","NA","340336.8194999998","14899.25089999997","341691.59279999987","341692.52629999985","130670.65400000001","340544.88140000013","NA","341157.35079999967","340328.55819999985","Extended template","0","2.8422000022546854","76","yes","1024"
"0","0","0.03729220781915265","0.03729220781915265","white","yes","psycho","psycho","psycho","0","uniform","0","undefined","0","n","1","0","79","1","1","0","0","0","0","NA","79","0","79","79","0","79","1","79","79","Tue Dec  5 17:32:56 2023","A template containing a practice and an experimental phase","yes","TalkFile_언어학과심리실험_B조_기말과제용심리실험.osexp.osexp","C:\Users\rober\OneDrive\Documents\Downloads","no","mono","no","18","no","black","no","yes","768","psycho","76","76","0","C:/Users/rober/OneDrive/바탕 화면/subject-2.csv","psycho","Lentiform Loewenfeld","3.3.14","no","새","natural","inclusive","0","None","NA","n","NA","a","None","n","0.02929999982006848","NA","1463.4515000002284","NA","115769.36879999994","0.02929999982006848","681.4491000000271","2","psycho","1024","2","48000","-16","experiment","2","even","까치","natural","NA","342581.3843000001","137679.51159999985","137679.37110000002","NA","136214.05389999974","14882.24080000009","137678.19559999998","NA","341867.9136999999","14899.25089999997","343370.2118000001","343371.10459999985","130670.65400000001","342075.8372999999","NA","342687.2460999998","341859.18379999977","Extended template","0","2.871500002074754","77","yes","1024"
"0","0","0.037266666693866655","0.037266666693866655","white","yes","psycho","psycho","psycho","0","uniform","0","undefined","0","n","1","0","80","1","1","0","0","0","0","NA","80","0","80","80","0","80","1","80","80","Tue Dec  5 17:32:56 2023","A template containing a practice and an experimental phase","yes","TalkFile_언어학과심리실험_B조_기말과제용심리실험.osexp.osexp","C:\Users\rober\OneDrive\Documents\Downloads","no","mono","no","18","no","black","no","yes","768","psycho","77","77","0","C:/Users/rober/OneDrive/바탕 화면/subject-2.csv","psycho","Lentiform Loewenfeld","3.3.14","no","대학교","artifactual","no-correlation","0","None","NA","n","NA","a","None","n","0.035300000046845526","NA","1463.4515000002284","NA","115769.36879999994","0.035300000046845526","479.0200999996159","2","psycho","1024","2","48000","-16","experiment","2","even","계곡","natural","NA","344228.4626999999","137679.51159999985","137679.37110000002","NA","136214.05389999974","14882.24080000009","137678.19559999998","NA","343514.4405000001","14899.25089999997","344816.51509999984","344817.55539999995","130670.65400000001","343722.3263999999","NA","344335.71200000006","343505.81250000006","Extended template","0","2.9068000021215994","78","yes","1024"
