"acc","accuracy","average_response_time","avg_rt","background","bidi","canvas_backend","clock_backend","color_backend","compensation","coordinates","correct","correct_instructions","correct_keyboard_response","correct_response","correct_target","count_about_this_template","count_blank","count_block_loop","count_block_sequence","count_end_of_experiment","count_end_of_practice","count_experiment","count_experimental_loop","count_feedback","count_fixation","count_instructions","count_keyboard_response","count_logger","count_practice_loop","count_prime","count_reset_feedback","count_target","count_trial_sequence","datetime","description","disable_garbage_collection","experiment_file","experiment_path","font_bold","font_family","font_italic","font_size","font_underline","foreground","form_clicks","fullscreen","height","keyboard_backend","live_row","live_row_block_loop","live_row_practice_loop","logfile","mouse_backend","opensesame_codename","opensesame_version","practice","prime","prime_condition","relation","repeat_cycle","response","response_end_of_experiment","response_end_of_practice","response_feedback","response_instructions","response_keyboard_response","response_target","response_time","response_time_end_of_experiment","response_time_end_of_practice","response_time_feedback","response_time_instructions","response_time_keyboard_response","response_time_target","round_decimals","sampler_backend","sound_buf_size","sound_channels","sound_freq","sound_sample_size","start","subject_nr","subject_parity","target","target_condition","time_about_this_template","time_blank","time_block_loop","time_block_sequence","time_end_of_experiment","time_end_of_practice","time_experiment","time_experimental_loop","time_feedback","time_fixation","time_instructions","time_keyboard_response","time_logger","time_practice_loop","time_prime","time_reset_feedback","time_target","time_trial_sequence","title","total_correct","total_response_time","total_responses","uniform_coordinates","width"
"0","0","0.02609999955893727","0.02609999955893727","white","yes","psycho","psycho","psycho","0","uniform","0","undefined","0","x","1","0","0","0","0","0","0","0","0","NA","0","0","0","0","0","0","0","0","0","Tue Dec  5 18:23:41 2023","A template containing a practice and an experimental phase","yes","TalkFile_언어학과심리실험_B조_기말과제용심리실험.osexp.osexp","C:\Users\rober\OneDrive\Documents\Downloads","no","mono","no","18","no","black","no","yes","768","psycho","0","0","0","C:/Users/rober/OneDrive/바탕 화면/subject-4.csv","psycho","Lentiform Loewenfeld","3.3.14","yes","시계","artifactual","non-word","0","None","NA","NA","NA","a","None","x","0.02609999955893727","NA","NA","NA","2040.9657000000152","0.02609999955893727","10154.478700000254","2","psycho","1024","2","48000","-16","experiment","4","even","책솜","non-word","NA","16471.49139999965","15620.910800000274","15620.672600000034","NA","NA","13559.519100000216","NA","NA","15757.57379999959","13577.029199999743","26732.518900000287","26732.68519999965","15619.866000000002","15966.290399999707","NA","16577.301199999965","15749.181600000156","Extended template","0","0.02609999955893727","1","yes","1024"
"0","0","0.026249999791616574","0.026249999791616574","white","yes","psycho","psycho","psycho","0","uniform","0","undefined","0","a","1","0","1","0","0","0","0","0","0","NA","1","0","1","1","0","1","0","1","1","Tue Dec  5 18:23:41 2023","A template containing a practice and an experimental phase","yes","TalkFile_언어학과심리실험_B조_기말과제용심리실험.osexp.osexp","C:\Users\rober\OneDrive\Documents\Downloads","no","mono","no","18","no","black","no","yes","768","psycho","1","1","0","C:/Users/rober/OneDrive/바탕 화면/subject-4.csv","psycho","Lentiform Loewenfeld","3.3.14","yes","향수","artifactual","no-correlation","0","None","NA","NA","NA","a","None","a","0.026400000024295878","NA","NA","NA","2040.9657000000152","0.026400000024295878","11111.951099999715","2","psycho","1024","2","48000","-16","experiment","4","even","선풍기","artifactual","NA","27599.939800000357","15620.910800000274","15620.672600000034","NA","NA","13559.519100000216","NA","NA","26886.7266999996","13577.029199999743","38818.2082000003","38818.40889999967","15619.866000000002","27095.400000000154","NA","27705.49730000039","26877.921600000263","Extended template","0","0.05249999958323315","2","yes","1024"
"0","0","0.030766666592777863","0.030766666592777863","white","yes","psycho","psycho","psycho","0","uniform","0","undefined","0","n","1","0","2","0","0","0","0","0","0","NA","2","0","2","2","0","2","0","2","2","Tue Dec  5 18:23:41 2023","A template containing a practice and an experimental phase","yes","TalkFile_언어학과심리실험_B조_기말과제용심리실험.osexp.osexp","C:\Users\rober\OneDrive\Documents\Downloads","no","mono","no","18","no","black","no","yes","768","psycho","2","2","0","C:/Users/rober/OneDrive/바탕 화면/subject-4.csv","psycho","Lentiform Loewenfeld","3.3.14","yes","언덕","natural","no-correlation","0","None","NA","NA","NA","a","None","n","0.03980000019510044","NA","NA","NA","2040.9657000000152","0.03980000019510044","782.5817000002644","2","psycho","1024","2","48000","-16","experiment","4","even","고양이","natural","NA","39689.77989999985","15620.910800000274","15620.672600000034","NA","NA","13559.519100000216","NA","NA","38976.1924000004","13577.029199999743","40581.26759999959","40581.49820000017","15619.866000000002","39183.948099999725","NA","39797.79400000007","38965.70460000021","Extended template","0","0.09229999977833359","3","yes","1024"
"0","0","0.03419999939069385","0.03419999939069385","white","yes","psycho","psycho","psycho","0","uniform","0","undefined","0","a","1","0","3","1","1","0","0","0","0","NA","3","0","3","3","0","3","1","3","3","Tue Dec  5 18:23:41 2023","A template containing a practice and an experimental phase","yes","TalkFile_언어학과심리실험_B조_기말과제용심리실험.osexp.osexp","C:\Users\rober\OneDrive\Documents\Downloads","no","mono","no","18","no","black","no","yes","768","psycho","0","0","0","C:/Users/rober/OneDrive/바탕 화면/subject-4.csv","psycho","Lentiform Loewenfeld","3.3.14","no","국가","artifactual","inclusive","0","None","NA","a","NA","a","None","a","0.03419999939069385","NA","1294.0558999998757","NA","2040.9657000000152","0.03419999939069385","870.5693000001702","2","psycho","1024","2","48000","-16","experiment","4","even","대한민국","artifactual","NA","42899.43959999982","42039.96889999962","42039.85939999984","NA","40741.81140000019","13559.519100000216","42037.792699999954","NA","42181.03750000046","13577.029199999743","43880.42320000022","43880.64420000046","15619.866000000002","42390.43800000036","NA","43009.016099999826","42165.488700000424","Extended template","0","0.03419999939069385","1","yes","1024"
"0","0","0.03204999939043773","0.03204999939043773","white","yes","psycho","psycho","psycho","0","uniform","0","undefined","0","a","1","0","4","1","1","0","0","0","0","NA","4","0","4","4","0","4","1","4","4","Tue Dec  5 18:23:41 2023","A template containing a practice and an experimental phase","yes","TalkFile_언어학과심리실험_B조_기말과제용심리실험.osexp.osexp","C:\Users\rober\OneDrive\Documents\Downloads","no","mono","no","18","no","black","no","yes","768","psycho","1","1","0","C:/Users/rober/OneDrive/바탕 화면/subject-4.csv","psycho","Lentiform Loewenfeld","3.3.14","no","종이","artifactual","similar-environmental","0","None","NA","a","NA","a","None","a","0.02989999939018162","NA","1294.0558999998757","NA","2040.9657000000152","0.02989999939018162","816.9838999992862","2","psycho","1024","2","48000","-16","experiment","4","even","프린터","artifactual","NA","44798.248400000375","42039.96889999962","42039.85939999984","NA","40741.81140000019","13559.519100000216","42037.792699999954","NA","44082.41009999983","13577.029199999743","45726.815400000305","45727.02130000016","15619.866000000002","44292.5094000002","NA","44909.017300000414","44071.68350000029","Extended template","0","0.06409999878087547","2","yes","1024"
"0","0","0.039599999581696466","0.039599999581696466","white","yes","psycho","psycho","psycho","0","uniform","0","undefined","0","n","1","0","5","1","1","0","0","0","0","NA","5","0","5","5","0","5","1","5","5","Tue Dec  5 18:23:41 2023","A template containing a practice and an experimental phase","yes","TalkFile_언어학과심리실험_B조_기말과제용심리실험.osexp.osexp","C:\Users\rober\OneDrive\Documents\Downloads","no","mono","no","18","no","black","no","yes","768","psycho","2","2","0","C:/Users/rober/OneDrive/바탕 화면/subject-4.csv","psycho","Lentiform Loewenfeld","3.3.14","no","얼음","natural","no-correlation","0","None","NA","a","NA","a","None","n","0.05469999996421393","NA","1294.0558999998757","NA","2040.9657000000152","0.05469999996421393","864.0556000000288","2","psycho","1024","2","48000","-16","experiment","4","even","돌","natural","NA","46612.887899999805","42039.96889999962","42039.85939999984","NA","40741.81140000019","13559.519100000216","42037.792699999954","NA","45894.92020000034","13577.029199999743","47584.019400000216","47584.46459999959","15619.866000000002","46107.20839999976","NA","46718.889200000376","45886.8266999998","Extended template","0","0.1187999987450894","3","yes","1024"
"0","0","0.036474999660640606","0.036474999660640606","white","yes","psycho","psycho","psycho","0","uniform","0","undefined","0","a","1","0","6","1","1","0","0","0","0","NA","6","0","6","6","0","6","1","6","6","Tue Dec  5 18:23:41 2023","A template containing a practice and an experimental phase","yes","TalkFile_언어학과심리실험_B조_기말과제용심리실험.osexp.osexp","C:\Users\rober\OneDrive\Documents\Downloads","no","mono","no","18","no","black","no","yes","768","psycho","3","3","0","C:/Users/rober/OneDrive/바탕 화면/subject-4.csv","psycho","Lentiform Loewenfeld","3.3.14","no","옷","artifactual","inclusive","0","None","NA","a","NA","a","None","a","0.027099999897473026","NA","1294.0558999998757","NA","2040.9657000000152","0.027099999897473026","13929.949600000327","2","psycho","1024","2","48000","-16","experiment","4","even","코트","artifactual","NA","48488.831599999685","42039.96889999962","42039.85939999984","NA","40741.81140000019","13559.519100000216","42037.792699999954","NA","47774.5074000004","13577.029199999743","62525.080600000365","62525.3388000001","15619.866000000002","47983.111599999575","NA","48594.34859999965","47764.15040000029","Extended template","0","0.14589999864256242","4","yes","1024"
"0","0","0.03537999964464689","0.03537999964464689","white","yes","psycho","psycho","psycho","0","uniform","0","undefined","0","a","1","0","7","1","1","0","0","0","0","NA","7","0","7","7","0","7","1","7","7","Tue Dec  5 18:23:41 2023","A template containing a practice and an experimental phase","yes","TalkFile_언어학과심리실험_B조_기말과제용심리실험.osexp.osexp","C:\Users\rober\OneDrive\Documents\Downloads","no","mono","no","18","no","black","no","yes","768","psycho","4","4","0","C:/Users/rober/OneDrive/바탕 화면/subject-4.csv","psycho","Lentiform Loewenfeld","3.3.14","no","피자","artifactual","similar-environmental","0","None","NA","a","NA","a","None","a","0.03099999958067201","NA","1294.0558999998757","NA","2040.9657000000152","0.03099999958067201","7509.467799999584","2","psycho","1024","2","48000","-16","experiment","4","even","파스타","artifactual","NA","63387.48080000005","42039.96889999962","42039.85939999984","NA","40741.81140000019","13559.519100000216","42037.792699999954","NA","62673.249999999825","13577.029199999743","71004.00270000045","71004.24560000011","15619.866000000002","62881.94709999971","NA","63493.3374000002","62664.81620000013","Extended template","0","0.17689999822323443","5","yes","1024"
"0","0","0.03476666642988372","0.03476666642988372","white","yes","psycho","psycho","psycho","0","uniform","0","undefined","0","n","1","0","8","1","1","0","0","0","0","NA","8","0","8","8","0","8","1","8","8","Tue Dec  5 18:23:41 2023","A template containing a practice and an experimental phase","yes","TalkFile_언어학과심리실험_B조_기말과제용심리실험.osexp.osexp","C:\Users\rober\OneDrive\Documents\Downloads","no","mono","no","18","no","black","no","yes","768","psycho","5","5","0","C:/Users/rober/OneDrive/바탕 화면/subject-4.csv","psycho","Lentiform Loewenfeld","3.3.14","no","패딩","artifactual","similar-environmental","0","None","NA","a","NA","a","None","n","0.0317000003560679","NA","1294.0558999998757","NA","2040.9657000000152","0.0317000003560679","783.6201000000001","2","psycho","1024","2","48000","-16","experiment","4","even","겨울","natural","NA","71871.30539999998","42039.96889999962","42039.85939999984","NA","40741.81140000019","13559.519100000216","42037.792699999954","NA","71157.02789999978","13577.029199999743","72761.74420000007","72762.00340000013","15619.866000000002","71365.41980000038","NA","71977.19419999977","71149.20900000015","Extended template","0","0.20859999857930234","6","yes","1024"
"0","0","0.03369999987002562","0.03369999987002562","white","yes","psycho","psycho","psycho","0","uniform","0","undefined","0","a","1","0","9","1","1","0","0","0","0","NA","9","0","9","9","0","9","1","9","9","Tue Dec  5 18:23:41 2023","A template containing a practice and an experimental phase","yes","TalkFile_언어학과심리실험_B조_기말과제용심리실험.osexp.osexp","C:\Users\rober\OneDrive\Documents\Downloads","no","mono","no","18","no","black","no","yes","768","psycho","6","6","0","C:/Users/rober/OneDrive/바탕 화면/subject-4.csv","psycho","Lentiform Loewenfeld","3.3.14","no","선설수","non-word","non-word","0","None","NA","a","NA","a","None","a","0.027300000510877","NA","1294.0558999998757","NA","2040.9657000000152","0.027300000510877","4927.181500000181","2","psycho","1024","2","48000","-16","experiment","4","even","시계","artifactual","NA","73615.01409999983","42039.96889999962","42039.85939999984","NA","40741.81140000019","13559.519100000216","42037.792699999954","NA","72901.97110000008","13577.029199999743","78649.55949999967","78649.79180000046","15619.866000000002","73109.63999999966","NA","73721.57040000003","72894.2790000001","Extended template","0","0.23589999909017934","7","yes","1024"
"0","0","0.03333749987268675","0.03333749987268675","white","yes","psycho","psycho","psycho","0","uniform","0","undefined","0","n","1","0","10","1","1","0","0","0","0","NA","10","0","10","10","0","10","1","10","10","Tue Dec  5 18:23:41 2023","A template containing a practice and an experimental phase","yes","TalkFile_언어학과심리실험_B조_기말과제용심리실험.osexp.osexp","C:\Users\rober\OneDrive\Documents\Downloads","no","mono","no","18","no","black","no","yes","768","psycho","7","7","0","C:/Users/rober/OneDrive/바탕 화면/subject-4.csv","psycho","Lentiform Loewenfeld","3.3.14","no","호수","natural","same phoneme","0","None","NA","a","NA","a","None","n","0.030799999891314656","NA","1294.0558999998757","NA","2040.9657000000152","0.030799999891314656","657.2619999997114","2","psycho","1024","2","48000","-16","experiment","4","even","호랑이","natural","NA","79519.19689999978","42039.96889999962","42039.85939999984","NA","40741.81140000019","13559.519100000216","42037.792699999954","NA","78805.50980000044","13577.029199999743","80282.9928000001","80283.26319999996","15619.866000000002","79013.8780999996","NA","79624.83020000036","78797.32839999997","Extended template","0","0.266699998981494","8","yes","1024"
"0","0","0.032766666563273046","0.032766666563273046","white","yes","psycho","psycho","psycho","0","uniform","0","undefined","0","n","1","0","11","1","1","0","0","0","0","NA","11","0","11","11","0","11","1","11","11","Tue Dec  5 18:23:41 2023","A template containing a practice and an experimental phase","yes","TalkFile_언어학과심리실험_B조_기말과제용심리실험.osexp.osexp","C:\Users\rober\OneDrive\Documents\Downloads","no","mono","no","18","no","black","no","yes","768","psycho","8","8","0","C:/Users/rober/OneDrive/바탕 화면/subject-4.csv","psycho","Lentiform Loewenfeld","3.3.14","no","해마","natural","same phoneme","0","None","NA","a","NA","a","None","n","0.028200000087963417","NA","1294.0558999998757","NA","2040.9657000000152","0.028200000087963417","778.8232999992033","2","psycho","1024","2","48000","-16","experiment","4","even","해질녘","natural","NA","81160.8656999997","42039.96889999962","42039.85939999984","NA","40741.81140000019","13559.519100000216","42037.792699999954","NA","80447.83639999968","13577.029199999743","82046.26279999956","82046.51300000024","15619.866000000002","80655.70589999971","NA","81266.54620000045","80438.10510000003","Extended template","0","0.2948999990694574","9","yes","1024"
"0","0","0.03222999985227944","0.03222999985227944","white","yes","psycho","psycho","psycho","0","uniform","0","undefined","0","a","1","0","12","1","1","0","0","0","0","NA","12","0","12","12","0","12","1","12","12","Tue Dec  5 18:23:41 2023","A template containing a practice and an experimental phase","yes","TalkFile_언어학과심리실험_B조_기말과제용심리실험.osexp.osexp","C:\Users\rober\OneDrive\Documents\Downloads","no","mono","no","18","no","black","no","yes","768","psycho","9","9","0","C:/Users/rober/OneDrive/바탕 화면/subject-4.csv","psycho","Lentiform Loewenfeld","3.3.14","no","학교","artifactual","inclusive","0","None","NA","a","NA","a","None","a","0.027399999453336932","NA","1294.0558999998757","NA","2040.9657000000152","0.027399999453336932","2969.5734000006196","2","psycho","1024","2","48000","-16","experiment","4","even","학생","artifactual","NA","82903.28260000024","42039.96889999962","42039.85939999984","NA","40741.81140000019","13559.519100000216","42037.792699999954","NA","82189.96380000043","13577.029199999743","85981.31060000014","85981.57050000009","15619.866000000002","82398.50060000026","NA","83010.75479999963","82181.35470000016","Extended template","0","0.32229999852279434","10","yes","1024"
"0","0","0.03189090900691967","0.03189090900691967","white","yes","psycho","psycho","psycho","0","uniform","0","undefined","0","a","1","0","13","1","1","0","0","0","0","NA","13","0","13","13","0","13","1","13","13","Tue Dec  5 18:23:41 2023","A template containing a practice and an experimental phase","yes","TalkFile_언어학과심리실험_B조_기말과제용심리실험.osexp.osexp","C:\Users\rober\OneDrive\Documents\Downloads","no","mono","no","18","no","black","no","yes","768","psycho","10","10","0","C:/Users/rober/OneDrive/바탕 화면/subject-4.csv","psycho","Lentiform Loewenfeld","3.3.14","no","가방","artifactual","no-correlation","0","None","NA","a","NA","a","None","a","0.028500000553322025","NA","1294.0558999998757","NA","2040.9657000000152","0.028500000553322025","819.839400000099","2","psycho","1024","2","48000","-16","experiment","4","even","기차","artifactual","NA","86847.53679999994","42039.96889999962","42039.85939999984","NA","40741.81140000019","13559.519100000216","42037.792699999954","NA","86133.8152999997","13577.029199999743","87773.96849999968","87774.23329999964","15619.866000000002","86342.59589999965","NA","86953.28640000024","86122.15449999986","Extended template","0","0.35079999907611636","11","yes","1024"
"0","0","0.03149166658052612","0.03149166658052612","white","yes","psycho","psycho","psycho","0","uniform","0","undefined","0","a","1","0","14","1","1","0","0","0","0","NA","14","0","14","14","0","14","1","14","14","Tue Dec  5 18:23:41 2023","A template containing a practice and an experimental phase","yes","TalkFile_언어학과심리실험_B조_기말과제용심리실험.osexp.osexp","C:\Users\rober\OneDrive\Documents\Downloads","no","mono","no","18","no","black","no","yes","768","psycho","11","11","0","C:/Users/rober/OneDrive/바탕 화면/subject-4.csv","psycho","Lentiform Loewenfeld","3.3.14","no","해변","natural","similar-environmental","0","None","NA","a","NA","a","None","a","0.02709999989019707","NA","1294.0558999998757","NA","2040.9657000000152","0.02709999989019707","35382.058000000136","2","psycho","1024","2","48000","-16","experiment","4","even","파라솔","artifactual","NA","88662.65560000011","42039.96889999962","42039.85939999984","NA","40741.81140000019","13559.519100000216","42037.792699999954","NA","87948.84100000036","13577.029199999743","124150.96679999988","124151.23940000012","15619.866000000002","88157.39329999997","NA","88767.99329999994","87940.53230000008","Extended template","0","0.37789999896631343","12","yes","1024"
"0","0","0.03141538456111448","0.03141538456111448","white","yes","psycho","psycho","psycho","0","uniform","0","undefined","0","a","1","0","15","1","1","0","0","0","0","NA","15","0","15","15","0","15","1","15","15","Tue Dec  5 18:23:41 2023","A template containing a practice and an experimental phase","yes","TalkFile_언어학과심리실험_B조_기말과제용심리실험.osexp.osexp","C:\Users\rober\OneDrive\Documents\Downloads","no","mono","no","18","no","black","no","yes","768","psycho","12","12","0","C:/Users/rober/OneDrive/바탕 화면/subject-4.csv","psycho","Lentiform Loewenfeld","3.3.14","no","전기","natural","similar-environmental","0","None","NA","a","NA","a","None","a","0.030500000328174792","NA","1294.0558999998757","NA","2040.9657000000152","0.030500000328174792","2298.4960000003484","2","psycho","1024","2","48000","-16","experiment","4","even","전선","artifactual","NA","125014.71169999968","42039.96889999962","42039.85939999984","NA","40741.81140000019","13559.519100000216","42037.792699999954","NA","124300.7534999997","13577.029199999743","127419.64029999962","127419.94609999983","15619.866000000002","124508.81560000016","NA","125120.2530999999","124292.61909999969","Extended template","0","0.4083999992944882","13","yes","1024"
"0","0","0.03143571419630981","0.03143571419630981","white","yes","psycho","psycho","psycho","0","uniform","0","undefined","0","n","1","0","16","1","1","0","0","0","0","NA","16","0","16","16","0","16","1","16","16","Tue Dec  5 18:23:41 2023","A template containing a practice and an experimental phase","yes","TalkFile_언어학과심리실험_B조_기말과제용심리실험.osexp.osexp","C:\Users\rober\OneDrive\Documents\Downloads","no","mono","no","18","no","black","no","yes","768","psycho","13","13","0","C:/Users/rober/OneDrive/바탕 화면/subject-4.csv","psycho","Lentiform Loewenfeld","3.3.14","no","전등","artifactual","no-correlation","0","None","NA","a","NA","a","None","n","0.03169999945384916","NA","1294.0558999998757","NA","2040.9657000000152","0.03169999945384916","612.333099999887","2","psycho","1024","2","48000","-16","experiment","4","even","소","natural","NA","128275.74329999971","42039.96889999962","42039.85939999984","NA","40741.81140000019","13559.519100000216","42037.792699999954","NA","127562.20159999975","13577.029199999743","128994.55920000037","128994.88870000004","15619.866000000002","127770.31720000014","NA","128381.28049999978","127553.41279999993","Extended template","0","0.4400999987483374","14","yes","1024"
"0","0","0.03503333325061249","0.03503333325061249","white","yes","psycho","psycho","psycho","0","uniform","0","undefined","0","a","1","0","17","1","1","0","0","0","0","NA","17","0","17","17","0","17","1","17","17","Tue Dec  5 18:23:41 2023","A template containing a practice and an experimental phase","yes","TalkFile_언어학과심리실험_B조_기말과제용심리실험.osexp.osexp","C:\Users\rober\OneDrive\Documents\Downloads","no","mono","no","18","no","black","no","yes","768","psycho","14","14","0","C:/Users/rober/OneDrive/바탕 화면/subject-4.csv","psycho","Lentiform Loewenfeld","3.3.14","no","교통","artifactual","inclusive","0","None","NA","a","NA","a","None","a","0.08540000001084991","NA","1294.0558999998757","NA","2040.9657000000152","0.08540000001084991","5315.403100000374","2","psycho","1024","2","48000","-16","experiment","4","even","자동차","artifactual","NA","129883.26919999963","42039.96889999962","42039.85939999984","NA","40741.81140000019","13559.519100000216","42037.792699999954","NA","129169.33330000029","13577.029199999743","135306.0357000004","135306.89749999964","15619.866000000002","129377.76810000013","NA","129989.12409999958","129161.45380000034","Extended template","0","0.5254999987591873","15","yes","1024"
"0","0","0.03689999988591808","0.03689999988591808","white","yes","psycho","psycho","psycho","0","uniform","0","undefined","0","n","1","0","18","1","1","0","0","0","0","NA","18","0","18","18","0","18","1","18","18","Tue Dec  5 18:23:41 2023","A template containing a practice and an experimental phase","yes","TalkFile_언어학과심리실험_B조_기말과제용심리실험.osexp.osexp","C:\Users\rober\OneDrive\Documents\Downloads","no","mono","no","18","no","black","no","yes","768","psycho","15","15","0","C:/Users/rober/OneDrive/바탕 화면/subject-4.csv","psycho","Lentiform Loewenfeld","3.3.14","no","경주","artifactual","no-correlation","0","None","NA","a","NA","a","None","n","0.06489999941550195","NA","1294.0558999998757","NA","2040.9657000000152","0.06489999941550195","8013.888899999991","2","psycho","1024","2","48000","-16","experiment","4","even","소나무","natural","NA","136161.0515000002","42039.96889999962","42039.85939999984","NA","40741.81140000019","13559.519100000216","42037.792699999954","NA","135447.43639999977","13577.029199999743","144282.4859000002","144282.95530000015","15619.866000000002","135655.65719999996","NA","136266.59860000017","135439.26660000032","Extended template","0","0.5903999981746892","16","yes","1024"
"0","0","0.03662941162602853","0.03662941162602853","white","yes","psycho","psycho","psycho","0","uniform","0","undefined","0","n","1","0","19","1","1","0","0","0","0","NA","19","0","19","19","0","19","1","19","19","Tue Dec  5 18:23:41 2023","A template containing a practice and an experimental phase","yes","TalkFile_언어학과심리실험_B조_기말과제용심리실험.osexp.osexp","C:\Users\rober\OneDrive\Documents\Downloads","no","mono","no","18","no","black","no","yes","768","psycho","16","16","0","C:/Users/rober/OneDrive/바탕 화면/subject-4.csv","psycho","Lentiform Loewenfeld","3.3.14","no","불","natural","no-correlation","0","None","NA","a","NA","a","None","n","0.032299999467795715","NA","1294.0558999998757","NA","2040.9657000000152","0.032299999467795715","752.2652999996208","2","psycho","1024","2","48000","-16","experiment","4","even","바위","natural","NA","145141.18270000018","42039.96889999962","42039.85939999984","NA","40741.81140000019","13559.519100000216","42037.792699999954","NA","144426.1118000004","13577.029199999743","146001.05640000038","146001.4033999996","15619.866000000002","144634.06759999998","NA","145247.55300000016","144416.94819999975","Extended template","0","0.622699997642485","17","yes","1024"
"0","0","0.03693333322614004","0.03693333322614004","white","yes","psycho","psycho","psycho","0","uniform","0","undefined","0","a","1","0","20","1","1","0","0","0","0","NA","20","0","20","20","0","20","1","20","20","Tue Dec  5 18:23:41 2023","A template containing a practice and an experimental phase","yes","TalkFile_언어학과심리실험_B조_기말과제용심리실험.osexp.osexp","C:\Users\rober\OneDrive\Documents\Downloads","no","mono","no","18","no","black","no","yes","768","psycho","17","17","0","C:/Users/rober/OneDrive/바탕 화면/subject-4.csv","psycho","Lentiform Loewenfeld","3.3.14","no","키보드","artifactual","similar-environmental","0","None","NA","a","NA","a","None","a","0.042100000428035855","NA","1294.0558999998757","NA","2040.9657000000152","0.042100000428035855","547.7136999998183","2","psycho","1024","2","48000","-16","experiment","4","even","컴퓨터","artifactual","NA","146861.22290000002","42039.96889999962","42039.85939999984","NA","40741.81140000019","13559.519100000216","42037.792699999954","NA","146147.3992000001","13577.029199999743","147517.95709999988","147518.5787999999","15619.866000000002","146356.34339999978","NA","146968.88430000035","146139.22230000026","Extended template","0","0.6647999980705208","18","yes","1024"
"0","0","0.03644736831522191","0.03644736831522191","white","yes","psycho","psycho","psycho","0","uniform","0","undefined","0","n","1","0","21","1","1","0","0","0","0","NA","21","0","21","21","0","21","1","21","21","Tue Dec  5 18:23:41 2023","A template containing a practice and an experimental phase","yes","TalkFile_언어학과심리실험_B조_기말과제용심리실험.osexp.osexp","C:\Users\rober\OneDrive\Documents\Downloads","no","mono","no","18","no","black","no","yes","768","psycho","18","18","0","C:/Users/rober/OneDrive/바탕 화면/subject-4.csv","psycho","Lentiform Loewenfeld","3.3.14","no","풍차","artifactual","no-correlation","0","None","NA","a","NA","a","None","n","0.02769999991869554","NA","1294.0558999998757","NA","2040.9657000000152","0.02769999991869554","623.8886999999522","2","psycho","1024","2","48000","-16","experiment","4","even","흙","natural","NA","148386.68979999964","42039.96889999962","42039.85939999984","NA","40741.81140000019","13559.519100000216","42037.792699999954","NA","147672.31360000005","13577.029199999743","149117.35020000016","149117.79560000013","15619.866000000002","147880.08879999962","NA","148492.48420000004","147664.42089999965","Extended template","0","0.6924999979892164","19","yes","1024"
"0","0","0.035964999869975145","0.035964999869975145","white","yes","psycho","psycho","psycho","0","uniform","0","undefined","0","a","1","0","22","1","1","0","0","0","0","NA","22","0","22","22","0","22","1","22","22","Tue Dec  5 18:23:41 2023","A template containing a practice and an experimental phase","yes","TalkFile_언어학과심리실험_B조_기말과제용심리실험.osexp.osexp","C:\Users\rober\OneDrive\Documents\Downloads","no","mono","no","18","no","black","no","yes","768","psycho","19","19","0","C:/Users/rober/OneDrive/바탕 화면/subject-4.csv","psycho","Lentiform Loewenfeld","3.3.14","no","기차","artifactual","no-correlation","0","None","NA","a","NA","a","None","a","0.026799999410286546","NA","1294.0558999998757","NA","2040.9657000000152","0.026799999410286546","2484.9032000001753","2","psycho","1024","2","48000","-16","experiment","4","even","가방","artifactual","NA","149974.20779999992","42039.96889999962","42039.85939999984","NA","40741.81140000019","13559.519100000216","42037.792699999954","NA","149260.37449999969","13577.029199999743","152570.54020000034","152570.8843000002","15619.866000000002","149468.9079","NA","150084.71259999988","149251.91480000012","Extended template","0","0.7192999973995029","20","yes","1024"
"0","0","0.03579999988037993","0.03579999988037993","white","yes","psycho","psycho","psycho","0","uniform","0","undefined","0","a","1","0","23","1","1","0","0","0","0","NA","23","0","23","23","0","23","1","23","23","Tue Dec  5 18:23:41 2023","A template containing a practice and an experimental phase","yes","TalkFile_언어학과심리실험_B조_기말과제용심리실험.osexp.osexp","C:\Users\rober\OneDrive\Documents\Downloads","no","mono","no","18","no","black","no","yes","768","psycho","20","20","0","C:/Users/rober/OneDrive/바탕 화면/subject-4.csv","psycho","Lentiform Loewenfeld","3.3.14","no","모자","artifactual","no-correlation","0","None","NA","a","NA","a","None","a","0.032500000088475645","NA","1294.0558999998757","NA","2040.9657000000152","0.032500000088475645","793.9304999999586","2","psycho","1024","2","48000","-16","experiment","4","even","마우스","artifactual","NA","153428.32559999987","42039.96889999962","42039.85939999984","NA","40741.81140000019","13559.519100000216","42037.792699999954","NA","152713.7783999997","13577.029199999743","154329.51090000005","154329.87680000043","15619.866000000002","152923.10309999995","NA","153534.64239999995","152705.78399999975","Extended template","0","0.7517999974879785","21","yes","1024"
"0","0","0.03594999985910941","0.03594999985910941","white","yes","psycho","psycho","psycho","0","uniform","0","undefined","0","a","1","0","24","1","1","0","0","0","0","NA","24","0","24","24","0","24","1","24","24","Tue Dec  5 18:23:41 2023","A template containing a practice and an experimental phase","yes","TalkFile_언어학과심리실험_B조_기말과제용심리실험.osexp.osexp","C:\Users\rober\OneDrive\Documents\Downloads","no","mono","no","18","no","black","no","yes","768","psycho","21","21","0","C:/Users/rober/OneDrive/바탕 화면/subject-4.csv","psycho","Lentiform Loewenfeld","3.3.14","no","악어","natural","same phoneme","0","None","NA","a","NA","a","None","a","0.03909999941242859","NA","1294.0558999998757","NA","2040.9657000000152","0.03909999941242859","2457.3982000001706","2","psycho","1024","2","48000","-16","experiment","4","even","악기","artifactual","NA","155187.3271000004","42039.96889999962","42039.85939999984","NA","40741.81140000019","13559.519100000216","42037.792699999954","NA","154472.73820000008","13577.029199999743","157751.4127000004","157751.8798000001","15619.866000000002","154680.81299999994","NA","155292.79260000022","154464.8229000004","Extended template","0","0.7908999969004071","22","yes","1024"
"0","0","0.035726086817031384","0.035726086817031384","white","yes","psycho","psycho","psycho","0","uniform","0","undefined","0","n","1","0","25","1","1","0","0","0","0","NA","25","0","25","25","0","25","1","25","25","Tue Dec  5 18:23:41 2023","A template containing a practice and an experimental phase","yes","TalkFile_언어학과심리실험_B조_기말과제용심리실험.osexp.osexp","C:\Users\rober\OneDrive\Documents\Downloads","no","mono","no","18","no","black","no","yes","768","psycho","22","22","0","C:/Users/rober/OneDrive/바탕 화면/subject-4.csv","psycho","Lentiform Loewenfeld","3.3.14","no","달력","artifactual","same phoneme","0","None","NA","a","NA","a","None","n","0.030799999891314656","NA","1294.0558999998757","NA","2040.9657000000152","0.030799999891314656","905.9750999995449","2","psycho","1024","2","48000","-16","experiment","4","even","달","natural","NA","158613.26840000038","42039.96889999962","42039.85939999984","NA","40741.81140000019","13559.519100000216","42037.792699999954","NA","157899.92540000004","13577.029199999743","159627.1538000001","159627.56700000045","15619.866000000002","158108.03959999976","NA","158720.1431000003","157891.1678000004","Extended template","0","0.8216999967917218","23","yes","1024"
"0","0","0.03565416655783338","0.03565416655783338","white","yes","psycho","psycho","psycho","0","uniform","0","undefined","0","n","1","0","26","1","1","0","0","0","0","NA","26","0","26","26","0","26","1","26","26","Tue Dec  5 18:23:41 2023","A template containing a practice and an experimental phase","yes","TalkFile_언어학과심리실험_B조_기말과제용심리실험.osexp.osexp","C:\Users\rober\OneDrive\Documents\Downloads","no","mono","no","18","no","black","no","yes","768","psycho","23","23","0","C:/Users/rober/OneDrive/바탕 화면/subject-4.csv","psycho","Lentiform Loewenfeld","3.3.14","no","다리","artifactual","similar-environmental","0","None","NA","a","NA","a","None","n","0.03400000059627928","NA","1294.0558999998757","NA","2040.9657000000152","0.03400000059627928","494.24179999914486","2","psycho","1024","2","48000","-16","experiment","4","even","강","natural","NA","160496.65360000017","42039.96889999962","42039.85939999984","NA","40741.81140000019","13559.519100000216","42037.792699999954","NA","159782.98189999987","13577.029199999743","161098.82279999965","161099.26890000043","15619.866000000002","159991.15650000022","NA","160602.93400000047","159774.85789999992","Extended template","0","0.8556999973880011","24","yes","1024"
"0","0","0.035415999919350724","0.035415999919350724","white","yes","psycho","psycho","psycho","0","uniform","0","undefined","0","a","1","0","27","1","1","0","0","0","0","NA","27","0","27","27","0","27","1","27","27","Tue Dec  5 18:23:41 2023","A template containing a practice and an experimental phase","yes","TalkFile_언어학과심리실험_B조_기말과제용심리실험.osexp.osexp","C:\Users\rober\OneDrive\Documents\Downloads","no","mono","no","18","no","black","no","yes","768","psycho","24","24","0","C:/Users/rober/OneDrive/바탕 화면/subject-4.csv","psycho","Lentiform Loewenfeld","3.3.14","no","모니터","artifactual","same phoneme","0","None","NA","a","NA","a","None","a","0.02970000059576705","NA","1294.0558999998757","NA","2040.9657000000152","0.02970000059576705","36642.91219999996","2","psycho","1024","2","48000","-16","experiment","4","even","모터","artifactual","NA","161976.29479999977","42039.96889999962","42039.85939999984","NA","40741.81140000019","13559.519100000216","42037.792699999954","NA","161263.43879999968","13577.029199999743","198726.6523999997","198727.05399999995","15619.866000000002","161471.54330000014","NA","162082.63739999983","161254.86160000035","Extended template","0","0.8853999979837681","25","yes","1024"
"0","0","0.03523076912516934","0.03523076912516934","white","yes","psycho","psycho","psycho","0","uniform","0","undefined","0","n","1","0","28","1","1","0","0","0","0","NA","28","0","28","28","0","28","1","28","28","Tue Dec  5 18:23:41 2023","A template containing a practice and an experimental phase","yes","TalkFile_언어학과심리실험_B조_기말과제용심리실험.osexp.osexp","C:\Users\rober\OneDrive\Documents\Downloads","no","mono","no","18","no","black","no","yes","768","psycho","25","25","0","C:/Users/rober/OneDrive/바탕 화면/subject-4.csv","psycho","Lentiform Loewenfeld","3.3.14","no","언덕","natural","no-correlation","0","None","NA","a","NA","a","None","n","0.030599999270634726","NA","1294.0558999998757","NA","2040.9657000000152","0.030599999270634726","2422.734700000554","2","psycho","1024","2","48000","-16","experiment","4","even","고양이","natural","NA","199606.8191000004","42039.96889999962","42039.85939999984","NA","40741.81140000019","13559.519100000216","42037.792699999954","NA","198891.46590000018","13577.029199999743","202136.82690000042","202137.2659999997","15619.866000000002","199099.5922000002","NA","199712.9875999999","198881.83260000005","Extended template","0","0.9159999972544028","26","yes","1024"
"0","0","0.03507407395685463","0.03507407395685463","white","yes","psycho","psycho","psycho","0","uniform","0","undefined","0","a","1","0","29","1","1","0","0","0","0","NA","29","0","29","29","0","29","1","29","29","Tue Dec  5 18:23:41 2023","A template containing a practice and an experimental phase","yes","TalkFile_언어학과심리실험_B조_기말과제용심리실험.osexp.osexp","C:\Users\rober\OneDrive\Documents\Downloads","no","mono","no","18","no","black","no","yes","768","psycho","26","26","0","C:/Users/rober/OneDrive/바탕 화면/subject-4.csv","psycho","Lentiform Loewenfeld","3.3.14","no","꽃","natural","no-correlation","0","None","NA","a","NA","a","None","a","0.03099999958067201","NA","1294.0558999998757","NA","2040.9657000000152","0.03099999958067201","918.7189000003855","2","psycho","1024","2","48000","-16","experiment","4","even","풍차","artifactual","NA","202987.6495999997","42039.96889999962","42039.85939999984","NA","40741.81140000019","13559.519100000216","42037.792699999954","NA","202273.56489999965","13577.029199999743","204012.91370000035","204013.36119999996","15619.866000000002","202481.31769999964","NA","203093.1125999996","202265.9033","Extended template","0","0.9469999968350749","27","yes","1024"
"0","0","0.035324999902253955","0.035324999902253955","white","yes","psycho","psycho","psycho","0","uniform","0","undefined","0","n","1","0","30","1","1","0","0","0","0","NA","30","0","30","30","0","30","1","30","30","Tue Dec  5 18:23:41 2023","A template containing a practice and an experimental phase","yes","TalkFile_언어학과심리실험_B조_기말과제용심리실험.osexp.osexp","C:\Users\rober\OneDrive\Documents\Downloads","no","mono","no","18","no","black","no","yes","768","psycho","27","27","0","C:/Users/rober/OneDrive/바탕 화면/subject-4.csv","psycho","Lentiform Loewenfeld","3.3.14","no","보트","artifactual","same phoneme","0","None","NA","a","NA","a","None","n","0.042100000428035855","NA","1294.0558999998757","NA","2040.9657000000152","0.042100000428035855","2989.8224999997183","2","psycho","1024","2","48000","-16","experiment","4","even","보름달","natural","NA","204868.79810000028","42039.96889999962","42039.85939999984","NA","40741.81140000019","13559.519100000216","42037.792699999954","NA","204154.19540000038","13577.029199999743","207965.35719999974","207965.87890000048","15619.866000000002","204363.62759999975","NA","204974.09940000036","204146.05610000034","Extended template","0","0.9890999972631107","28","yes","1024"
"0","0","0.03503793094117508","0.03503793094117508","white","yes","psycho","psycho","psycho","0","uniform","0","undefined","0","n","1","0","31","1","1","0","0","0","0","NA","31","0","31","31","0","31","1","31","31","Tue Dec  5 18:23:41 2023","A template containing a practice and an experimental phase","yes","TalkFile_언어학과심리실험_B조_기말과제용심리실험.osexp.osexp","C:\Users\rober\OneDrive\Documents\Downloads","no","mono","no","18","no","black","no","yes","768","psycho","28","28","0","C:/Users/rober/OneDrive/바탕 화면/subject-4.csv","psycho","Lentiform Loewenfeld","3.3.14","no","스노우보드","artifactual","no-correlation","0","None","NA","a","NA","a","None","n","0.027000000030966476","NA","1294.0558999998757","NA","2040.9657000000152","0.027000000030966476","672.9821999997366","2","psycho","1024","2","48000","-16","experiment","4","even","소나무","natural","NA","208820.96730000013","42039.96889999962","42039.85939999984","NA","40741.81140000019","13559.519100000216","42037.792699999954","NA","208107.75840000043","13577.029199999743","209600.78909999994","209601.20819999976","15619.866000000002","208316.12049999967","NA","208926.74220000027","208099.74560000046","Extended template","0","1.0160999972940772","29","yes","1024"
"0","0","0.03495999993247097","0.03495999993247097","white","yes","psycho","psycho","psycho","0","uniform","0","undefined","0","n","1","0","32","1","1","0","0","0","0","NA","32","0","32","32","0","32","1","32","32","Tue Dec  5 18:23:41 2023","A template containing a practice and an experimental phase","yes","TalkFile_언어학과심리실험_B조_기말과제용심리실험.osexp.osexp","C:\Users\rober\OneDrive\Documents\Downloads","no","mono","no","18","no","black","no","yes","768","psycho","29","29","0","C:/Users/rober/OneDrive/바탕 화면/subject-4.csv","psycho","Lentiform Loewenfeld","3.3.14","no","동굴","natural","similar-environmental","0","None","NA","a","NA","a","None","n","0.032700000680051744","NA","1294.0558999998757","NA","2040.9657000000152","0.032700000680051744","7207.488099999871","2","psycho","1024","2","48000","-16","experiment","4","even","박쥐","natural","NA","210459.50699999958","42039.96889999962","42039.85939999984","NA","40741.81140000019","13559.519100000216","42037.792699999954","NA","209745.74800000028","13577.029199999743","217774.61779999977","217775.15299999958","15619.866000000002","209954.32080000045","NA","210565.97479999982","209737.65540000022","Extended template","0","1.048799997974129","30","yes","1024"
"0","0","0.03474193542135782","0.03474193542135782","white","yes","psycho","psycho","psycho","0","uniform","0","undefined","0","a","1","0","33","1","1","0","0","0","0","NA","33","0","33","33","0","33","1","33","33","Tue Dec  5 18:23:41 2023","A template containing a practice and an experimental phase","yes","TalkFile_언어학과심리실험_B조_기말과제용심리실험.osexp.osexp","C:\Users\rober\OneDrive\Documents\Downloads","no","mono","no","18","no","black","no","yes","768","psycho","30","30","0","C:/Users/rober/OneDrive/바탕 화면/subject-4.csv","psycho","Lentiform Loewenfeld","3.3.14","no","기계","artifactual","inclusive","0","None","NA","a","NA","a","None","a","0.028200000087963417","NA","1294.0558999998757","NA","2040.9657000000152","0.028200000087963417","473.50439999991795","2","psycho","1024","2","48000","-16","experiment","4","even","컴퓨터","artifactual","NA","218632.28770000022","42039.96889999962","42039.85939999984","NA","40741.81140000019","13559.519100000216","42037.792699999954","NA","217918.87740000038","13577.029199999743","219212.62060000026","219213.05440000014","15619.866000000002","218126.66100000025","NA","218737.94679999992","217910.8422999998","Extended template","0","1.0769999980620923","31","yes","1024"
"0","0","0.03453749994218924","0.03453749994218924","white","yes","psycho","psycho","psycho","0","uniform","0","undefined","0","x","1","0","34","1","1","0","0","0","0","NA","34","0","34","34","0","34","1","34","34","Tue Dec  5 18:23:41 2023","A template containing a practice and an experimental phase","yes","TalkFile_언어학과심리실험_B조_기말과제용심리실험.osexp.osexp","C:\Users\rober\OneDrive\Documents\Downloads","no","mono","no","18","no","black","no","yes","768","psycho","31","31","0","C:/Users/rober/OneDrive/바탕 화면/subject-4.csv","psycho","Lentiform Loewenfeld","3.3.14","no","냉장고","artifactual","non-word","0","None","NA","a","NA","a","None","x","0.028200000087963417","NA","1294.0558999998757","NA","2040.9657000000152","0.028200000087963417","4976.4890999995405","2","psycho","1024","2","48000","-16","experiment","4","even","로방삭","non-word","NA","220094.80030000032","42039.96889999962","42039.85939999984","NA","40741.81140000019","13559.519100000216","42037.792699999954","NA","219381.26769999962","13577.029199999743","225178.08369999967","225178.5643000003","15619.866000000002","219589.30260000034","NA","220200.41260000016","219372.90440000014","Extended template","0","1.1051999981500558","32","yes","1024"
"0","0","0.03446666659874609","0.03446666659874609","white","yes","psycho","psycho","psycho","0","uniform","0","undefined","0","n","1","0","35","1","1","0","0","0","0","NA","35","0","35","35","0","35","1","35","35","Tue Dec  5 18:23:41 2023","A template containing a practice and an experimental phase","yes","TalkFile_언어학과심리실험_B조_기말과제용심리실험.osexp.osexp","C:\Users\rober\OneDrive\Documents\Downloads","no","mono","no","18","no","black","no","yes","768","psycho","32","32","0","C:/Users/rober/OneDrive/바탕 화면/subject-4.csv","psycho","Lentiform Loewenfeld","3.3.14","no","구두","artifactual","same phoneme","0","None","NA","a","NA","a","None","n","0.03219999960856512","NA","1294.0558999998757","NA","2040.9657000000152","0.03219999960856512","658.3310000005586","2","psycho","1024","2","48000","-16","experiment","4","even","구름","natural","NA","226034.16199999992","42039.96889999962","42039.85939999984","NA","40741.81140000019","13559.519100000216","42037.792699999954","NA","225318.40360000025","13577.029199999743","226800.03130000024","226800.53490000046","15619.866000000002","225527.32130000004","NA","226140.52879999962","225309.49109999984","Extended template","0","1.1373999977586209","33","yes","1024"
"0","0","0.034399999949956135","0.034399999949956135","white","yes","psycho","psycho","psycho","0","uniform","0","undefined","0","a","1","0","36","1","1","0","0","0","0","NA","36","0","36","36","0","36","1","36","36","Tue Dec  5 18:23:41 2023","A template containing a practice and an experimental phase","yes","TalkFile_언어학과심리실험_B조_기말과제용심리실험.osexp.osexp","C:\Users\rober\OneDrive\Documents\Downloads","no","mono","no","18","no","black","no","yes","768","psycho","33","33","0","C:/Users/rober/OneDrive/바탕 화면/subject-4.csv","psycho","Lentiform Loewenfeld","3.3.14","no","벌레","natural","same phoneme","0","None","NA","a","NA","a","None","a","0.032200000539887697","NA","1294.0558999998757","NA","2040.9657000000152","0.032200000539887697","555.4256000005116","2","psycho","1024","2","48000","-16","experiment","4","even","발레","artifactual","NA","227664.14710000026","42039.96889999962","42039.85939999984","NA","40741.81140000019","13559.519100000216","42037.792699999954","NA","226950.41409999976","13577.029199999743","228326.26549999986","228326.80170000004","15619.866000000002","227158.4042000004","NA","227769.73069999984","226942.42130000022","Extended template","0","1.1695999982985086","34","yes","1024"
"0","0","0.034265714254122163","0.034265714254122163","white","yes","psycho","psycho","psycho","0","uniform","0","undefined","0","n","1","0","37","1","1","0","0","0","0","NA","37","0","37","37","0","37","1","37","37","Tue Dec  5 18:23:41 2023","A template containing a practice and an experimental phase","yes","TalkFile_언어학과심리실험_B조_기말과제용심리실험.osexp.osexp","C:\Users\rober\OneDrive\Documents\Downloads","no","mono","no","18","no","black","no","yes","768","psycho","34","34","0","C:/Users/rober/OneDrive/바탕 화면/subject-4.csv","psycho","Lentiform Loewenfeld","3.3.14","no","항구","artifactual","similar-environmental","0","None","NA","a","NA","a","None","n","0.02970000059576705","NA","1294.0558999998757","NA","2040.9657000000152","0.02970000059576705","1268.7713999994157","2","psycho","1024","2","48000","-16","experiment","4","even","바다","natural","NA","229185.18060000043","42039.96889999962","42039.85939999984","NA","40741.81140000019","13559.519100000216","42037.792699999954","NA","228469.34969999985","13577.029199999743","230563.62759999957","230564.11300000036","15619.866000000002","228678.06939999992","NA","229293.70180000024","228461.42239999972","Extended template","0","1.1992999988942756","35","yes","1024"
"0","0","0.03417499995763743","0.03417499995763743","white","yes","psycho","psycho","psycho","0","uniform","0","undefined","0","n","1","0","38","1","1","0","0","0","0","NA","38","0","38","38","0","38","1","38","38","Tue Dec  5 18:23:41 2023","A template containing a practice and an experimental phase","yes","TalkFile_언어학과심리실험_B조_기말과제용심리실험.osexp.osexp","C:\Users\rober\OneDrive\Documents\Downloads","no","mono","no","18","no","black","no","yes","768","psycho","35","35","0","C:/Users/rober/OneDrive/바탕 화면/subject-4.csv","psycho","Lentiform Loewenfeld","3.3.14","no","스노우보드","artifactual","no-correlation","0","None","NA","a","NA","a","None","n","0.03099999958067201","NA","1294.0558999998757","NA","2040.9657000000152","0.03099999958067201","2752.3122000002186","2","psycho","1024","2","48000","-16","experiment","4","even","꽃","natural","NA","231417.96030000024","42039.96889999962","42039.85939999984","NA","40741.81140000019","13559.519100000216","42037.792699999954","NA","230704.76489999966","13577.029199999743","234277.69270000045","234278.2258999996","15619.866000000002","230912.6752000002","NA","231524.17479999986","230696.5151000004","Extended template","0","1.2302999984749476","36","yes","1024"
"0","0","0.03410270267989757","0.03410270267989757","white","yes","psycho","psycho","psycho","0","uniform","0","undefined","0","a","1","0","39","1","1","0","0","0","0","NA","39","0","39","39","0","39","1","39","39","Tue Dec  5 18:23:41 2023","A template containing a practice and an experimental phase","yes","TalkFile_언어학과심리실험_B조_기말과제용심리실험.osexp.osexp","C:\Users\rober\OneDrive\Documents\Downloads","no","mono","no","18","no","black","no","yes","768","psycho","36","36","0","C:/Users/rober/OneDrive/바탕 화면/subject-4.csv","psycho","Lentiform Loewenfeld","3.3.14","no","프린터","artifactual","similar-environmental","0","None","NA","a","NA","a","None","a","0.03150000068126246","NA","1294.0558999998757","NA","2040.9657000000152","0.03150000068126246","577.4092999999993","2","psycho","1024","2","48000","-16","experiment","4","even","종이","artifactual","NA","235149.64690000034","42039.96889999962","42039.85939999984","NA","40741.81140000019","13559.519100000216","42037.792699999954","NA","234434.33230000027","13577.029199999743","235835.33389999956","235835.86930000002","15619.866000000002","234643.74560000031","NA","235256.5661999997","234426.07640000005","Extended template","0","1.26179999915621","37","yes","1024"
"0","0","0.03442368417956076","0.03442368417956076","white","yes","psycho","psycho","psycho","0","uniform","0","undefined","0","n","1","0","40","1","1","0","0","0","0","NA","40","0","40","40","0","40","1","40","40","Tue Dec  5 18:23:41 2023","A template containing a practice and an experimental phase","yes","TalkFile_언어학과심리실험_B조_기말과제용심리실험.osexp.osexp","C:\Users\rober\OneDrive\Documents\Downloads","no","mono","no","18","no","black","no","yes","768","psycho","37","37","0","C:/Users/rober/OneDrive/바탕 화면/subject-4.csv","psycho","Lentiform Loewenfeld","3.3.14","no","해질녘","natural","same phoneme","0","None","NA","a","NA","a","None","n","0.046299999667098746","NA","1294.0558999998757","NA","2040.9657000000152","0.046299999667098746","586.4646000000066","2","psycho","1024","2","48000","-16","experiment","4","even","해마","natural","NA","236730.57679999966","42039.96889999962","42039.85939999984","NA","40741.81140000019","13559.519100000216","42037.792699999954","NA","236015.6014000004","13577.029199999743","237426.6150000003","237427.20720000035","15619.866000000002","236224.78200000024","NA","236838.33820000017","236006.22050000037","Extended template","0","1.3080999988233089","38","yes","1024"
"0","0","0.03428974354737408","0.03428974354737408","white","yes","psycho","psycho","psycho","0","uniform","0","undefined","0","a","1","0","41","1","1","0","0","0","0","NA","41","0","41","41","0","41","1","41","41","Tue Dec  5 18:23:41 2023","A template containing a practice and an experimental phase","yes","TalkFile_언어학과심리실험_B조_기말과제용심리실험.osexp.osexp","C:\Users\rober\OneDrive\Documents\Downloads","no","mono","no","18","no","black","no","yes","768","psycho","38","38","0","C:/Users/rober/OneDrive/바탕 화면/subject-4.csv","psycho","Lentiform Loewenfeld","3.3.14","no","플피","non-word","non-word","0","None","NA","a","NA","a","None","a","0.02919999952428043","NA","1294.0558999998757","NA","2040.9657000000152","0.02919999952428043","1596.097599999688","2","psycho","1024","2","48000","-16","experiment","4","even","책상","artifactual","NA","238342.67900000032","42039.96889999962","42039.85939999984","NA","40741.81140000019","13559.519100000216","42037.792699999954","NA","237625.58059999993","13577.029199999743","240045.92310000042","240046.42349999995","15619.866000000002","237837.18609999958","NA","238448.70059999992","237615.49389999983","Extended template","0","1.3372999983475893","39","yes","1024"
"0","0","0.03423249995666992","0.03423249995666992","white","yes","psycho","psycho","psycho","0","uniform","0","undefined","0","n","1","0","42","1","1","0","0","0","0","NA","42","0","42","42","0","42","1","42","42","Tue Dec  5 18:23:41 2023","A template containing a practice and an experimental phase","yes","TalkFile_언어학과심리실험_B조_기말과제용심리실험.osexp.osexp","C:\Users\rober\OneDrive\Documents\Downloads","no","mono","no","18","no","black","no","yes","768","psycho","39","39","0","C:/Users/rober/OneDrive/바탕 화면/subject-4.csv","psycho","Lentiform Loewenfeld","3.3.14","no","소방서","artifactual","same phoneme","0","None","NA","a","NA","a","None","n","0.03199999991920777","NA","1294.0558999998757","NA","2040.9657000000152","0.03199999991920777","1098.4841999998316","2","psycho","1024","2","48000","-16","experiment","4","even","소나무","natural","NA","240904.5839999999","42039.96889999962","42039.85939999984","NA","40741.81140000019","13559.519100000216","42037.792699999954","NA","240190.71179999993","13577.029199999743","242109.78390000036","242110.5539","15619.866000000002","240398.72730000026","NA","241009.88010000036","240182.04870000045","Extended template","0","1.369299998266797","40","yes","1024"
"0","0","0.035682926774869686","0.035682926774869686","white","yes","psycho","psycho","psycho","0","uniform","0","undefined","0","n","1","0","43","1","1","0","0","0","0","NA","43","0","43","43","0","43","1","43","43","Tue Dec  5 18:23:41 2023","A template containing a practice and an experimental phase","yes","TalkFile_언어학과심리실험_B조_기말과제용심리실험.osexp.osexp","C:\Users\rober\OneDrive\Documents\Downloads","no","mono","no","18","no","black","no","yes","768","psycho","40","40","0","C:/Users/rober/OneDrive/바탕 화면/subject-4.csv","psycho","Lentiform Loewenfeld","3.3.14","no","태양계","natural","inclusive","0","None","NA","a","NA","a","None","n","0.09369999950286001","NA","1294.0558999998757","NA","2040.9657000000152","0.09369999950286001","677.3530999998911","2","psycho","1024","2","48000","-16","experiment","4","even","목성","natural","NA","242966.80399999968","42039.96889999962","42039.85939999984","NA","40741.81140000019","13559.519100000216","42037.792699999954","NA","242253.33890000003","13577.029199999743","243752.36810000025","243753.66510000004","15619.866000000002","242461.53340000001","NA","243073.04490000024","242244.49370000002","Extended template","0","1.462999997769657","41","yes","1024"
"0","0","0.03565238089937511","0.03565238089937511","white","yes","psycho","psycho","psycho","0","uniform","0","undefined","0","a","1","0","44","1","1","0","0","0","0","NA","44","0","44","44","0","44","1","44","44","Tue Dec  5 18:23:41 2023","A template containing a practice and an experimental phase","yes","TalkFile_언어학과심리실험_B조_기말과제용심리실험.osexp.osexp","C:\Users\rober\OneDrive\Documents\Downloads","no","mono","no","18","no","black","no","yes","768","psycho","41","41","0","C:/Users/rober/OneDrive/바탕 화면/subject-4.csv","psycho","Lentiform Loewenfeld","3.3.14","no","불","natural","similar-environmental","0","None","NA","a","NA","a","None","a","0.03440000000409782","NA","1294.0558999998757","NA","2040.9657000000152","0.03440000000409782","4630.2319000005955","2","psycho","1024","2","48000","-16","experiment","4","even","소화기","artifactual","NA","244608.5291999998","42039.96889999962","42039.85939999984","NA","40741.81140000019","13559.519100000216","42037.792699999954","NA","243894.90850000037","13577.029199999743","249345.69079999984","249346.2714999996","15619.866000000002","244103.00819999975","NA","244714.1843999998","243885.9252000002","Extended template","0","1.4973999977737549","42","yes","1024"
"0","0","0.03562093018483083","0.03562093018483083","white","yes","psycho","psycho","psycho","0","uniform","0","undefined","0","n","1","0","45","1","1","0","0","0","0","NA","45","0","45","45","0","45","1","45","45","Tue Dec  5 18:23:41 2023","A template containing a practice and an experimental phase","yes","TalkFile_언어학과심리실험_B조_기말과제용심리실험.osexp.osexp","C:\Users\rober\OneDrive\Documents\Downloads","no","mono","no","18","no","black","no","yes","768","psycho","42","42","0","C:/Users/rober/OneDrive/바탕 화면/subject-4.csv","psycho","Lentiform Loewenfeld","3.3.14","no","박쥐","natural","similar-environmental","0","None","NA","a","NA","a","None","n","0.03430000017397106","NA","1294.0558999998757","NA","2040.9657000000152","0.03430000017397106","603.9578000000038","2","psycho","1024","2","48000","-16","experiment","4","even","동굴","natural","NA","250202.16970000003","42039.96889999962","42039.85939999984","NA","40741.81140000019","13559.519100000216","42037.792699999954","NA","249488.73249999998","13577.029199999743","250913.5200999999","250914.1540999999","15619.866000000002","249696.89800000016","NA","250308.24949999986","249479.27330000038","Extended template","0","1.531699997947726","43","yes","1024"
"0","0","0.0354181817619974","0.0354181817619974","white","yes","psycho","psycho","psycho","0","uniform","0","undefined","0","a","1","0","46","1","1","0","0","0","0","NA","46","0","46","46","0","46","1","46","46","Tue Dec  5 18:23:41 2023","A template containing a practice and an experimental phase","yes","TalkFile_언어학과심리실험_B조_기말과제용심리실험.osexp.osexp","C:\Users\rober\OneDrive\Documents\Downloads","no","mono","no","18","no","black","no","yes","768","psycho","43","43","0","C:/Users/rober/OneDrive/바탕 화면/subject-4.csv","psycho","Lentiform Loewenfeld","3.3.14","no","화분","artifactual","no-correlation","0","None","NA","a","NA","a","None","a","0.026699999580159783","NA","1294.0558999998757","NA","2040.9657000000152","0.026699999580159783","2020.120400000451","2","psycho","1024","2","48000","-16","experiment","4","even","신발","artifactual","NA","251784.9173000004","42039.96889999962","42039.85939999984","NA","40741.81140000019","13559.519100000216","42037.792699999954","NA","251071.52070000028","13577.029199999743","253911.74070000034","253912.28520000004","15619.866000000002","251279.75719999993","NA","251890.53960000002","251059.51089999962","Extended template","0","1.5583999975278857","44","yes","1024"
"0","0","0.03638666659939594","0.03638666659939594","white","yes","psycho","psycho","psycho","0","uniform","0","undefined","0","n","1","0","47","1","1","0","0","0","0","NA","47","0","47","47","0","47","1","47","47","Tue Dec  5 18:23:41 2023","A template containing a practice and an experimental phase","yes","TalkFile_언어학과심리실험_B조_기말과제용심리실험.osexp.osexp","C:\Users\rober\OneDrive\Documents\Downloads","no","mono","no","18","no","black","no","yes","768","psycho","44","44","0","C:/Users/rober/OneDrive/바탕 화면/subject-4.csv","psycho","Lentiform Loewenfeld","3.3.14","no","물고기","natural","no-correlation","0","None","NA","a","NA","a","None","n","0.07899999944493175","NA","1294.0558999998757","NA","2040.9657000000152","0.07899999944493175","8769.527999999817","2","psycho","1024","2","48000","-16","experiment","4","even","밤하늘","natural","NA","254767.2091000004","42039.96889999962","42039.85939999984","NA","40741.81140000019","13559.519100000216","42037.792699999954","NA","254053.40369999976","13577.029199999743","263644.0394000001","263644.82580000005","15619.866000000002","254261.6932000001","NA","254873.1717999999","254044.59959999984","Extended template","0","1.6373999969728175","45","yes","1024"
"0","0","0.03629999993854258","0.03629999993854258","white","yes","psycho","psycho","psycho","0","uniform","0","undefined","0","a","1","0","48","1","1","0","0","0","0","NA","48","0","48","48","0","48","1","48","48","Tue Dec  5 18:23:41 2023","A template containing a practice and an experimental phase","yes","TalkFile_언어학과심리실험_B조_기말과제용심리실험.osexp.osexp","C:\Users\rober\OneDrive\Documents\Downloads","no","mono","no","18","no","black","no","yes","768","psycho","45","45","0","C:/Users/rober/OneDrive/바탕 화면/subject-4.csv","psycho","Lentiform Loewenfeld","3.3.14","no","영화","artifactual","similar-environmental","0","None","NA","a","NA","a","None","a","0.03240000020014122","NA","1294.0558999998757","NA","2040.9657000000152","0.03240000020014122","1040.1732999999076","2","psycho","1024","2","48000","-16","experiment","4","even","드라마","artifactual","NA","264498.3646999999","42039.96889999962","42039.85939999984","NA","40741.81140000019","13559.519100000216","42037.792699999954","NA","263785.0818999996","13577.029199999743","265645.60299999994","265646.20159999956","15619.866000000002","263992.8499999996","NA","264603.88020000025","263775.5387999996","Extended template","0","1.6697999971729587","46","yes","1024"
"0","0","0.03615106377571677","0.03615106377571677","white","yes","psycho","psycho","psycho","0","uniform","0","undefined","0","a","1","0","49","1","1","0","0","0","0","NA","49","0","49","49","0","49","1","49","49","Tue Dec  5 18:23:41 2023","A template containing a practice and an experimental phase","yes","TalkFile_언어학과심리실험_B조_기말과제용심리실험.osexp.osexp","C:\Users\rober\OneDrive\Documents\Downloads","no","mono","no","18","no","black","no","yes","768","psycho","46","46","0","C:/Users/rober/OneDrive/바탕 화면/subject-4.csv","psycho","Lentiform Loewenfeld","3.3.14","no","마우스","artifactual","no-correlation","0","None","NA","a","NA","a","None","a","0.029300000285729766","NA","1294.0558999998757","NA","2040.9657000000152","0.029300000285729766","1460.2415999997756","2","psycho","1024","2","48000","-16","experiment","4","even","모자","artifactual","NA","266503.3788999999","42039.96889999962","42039.85939999984","NA","40741.81140000019","13559.519100000216","42037.792699999954","NA","265789.70469999965","13577.029199999743","268071.3796","268071.99020000006","15619.866000000002","265998.2356","NA","266609.90490000043","265781.7309000002","Extended template","0","1.6990999974586884","47","yes","1024"
"0","0","0.03597916660616344","0.03597916660616344","white","yes","psycho","psycho","psycho","0","uniform","0","undefined","0","n","1","0","50","1","1","0","0","0","0","NA","50","0","50","50","0","50","1","50","50","Tue Dec  5 18:23:41 2023","A template containing a practice and an experimental phase","yes","TalkFile_언어학과심리실험_B조_기말과제용심리실험.osexp.osexp","C:\Users\rober\OneDrive\Documents\Downloads","no","mono","no","18","no","black","no","yes","768","psycho","47","47","0","C:/Users/rober/OneDrive/바탕 화면/subject-4.csv","psycho","Lentiform Loewenfeld","3.3.14","no","새","natural","inclusive","0","None","NA","a","NA","a","None","n","0.027899999637156725","NA","1294.0558999998757","NA","2040.9657000000152","0.027899999637156725","19652.38409999985","2","psycho","1024","2","48000","-16","experiment","4","even","까치","natural","NA","268925.86670000036","42039.96889999962","42039.85939999984","NA","40741.81140000019","13559.519100000216","42037.792699999954","NA","268213.30880000006","13577.029199999743","288684.9155","288685.53369999974","15619.866000000002","268421.0733999998","NA","269031.2481000001","268204.9165999997","Extended template","0","1.7269999970958452","48","yes","1024"
"0","0","0.035938775444691956","0.035938775444691956","white","yes","psycho","psycho","psycho","0","uniform","0","undefined","0","a","1","0","51","1","1","0","0","0","0","NA","51","0","51","51","0","51","1","51","51","Tue Dec  5 18:23:41 2023","A template containing a practice and an experimental phase","yes","TalkFile_언어학과심리실험_B조_기말과제용심리실험.osexp.osexp","C:\Users\rober\OneDrive\Documents\Downloads","no","mono","no","18","no","black","no","yes","768","psycho","48","48","0","C:/Users/rober/OneDrive/바탕 화면/subject-4.csv","psycho","Lentiform Loewenfeld","3.3.14","no","눈","natural","similar-environmental","0","None","NA","a","NA","a","None","a","0.033999999694060534","NA","1294.0558999998757","NA","2040.9657000000152","0.033999999694060534","10604.43100000068","2","psycho","1024","2","48000","-16","experiment","4","even","스키","artifactual","NA","289566.10160000034","42039.96889999962","42039.85939999984","NA","40741.81140000019","13559.519100000216","42037.792699999954","NA","288848.95380000037","13577.029199999743","300278.3804999999","300279.02350000024","15619.866000000002","289058.2457","NA","289672.58049999963","288840.93949999986","Extended template","0","1.7609999967899057","49","yes","1024"
"0","0","0.03585599992176867","0.03585599992176867","white","yes","psycho","psycho","psycho","0","uniform","0","undefined","0","a","1","0","52","1","1","0","0","0","0","NA","52","0","52","52","0","52","1","52","52","Tue Dec  5 18:23:41 2023","A template containing a practice and an experimental phase","yes","TalkFile_언어학과심리실험_B조_기말과제용심리실험.osexp.osexp","C:\Users\rober\OneDrive\Documents\Downloads","no","mono","no","18","no","black","no","yes","768","psycho","49","49","0","C:/Users/rober/OneDrive/바탕 화면/subject-4.csv","psycho","Lentiform Loewenfeld","3.3.14","no","로켓","artifactual","same phoneme","0","None","NA","a","NA","a","None","a","0.03179999929852784","NA","1294.0558999998757","NA","2040.9657000000152","0.03179999929852784","822.8681000000215","2","psycho","1024","2","48000","-16","experiment","4","even","로봇","artifactual","NA","301139.6314000003","42039.96889999962","42039.85939999984","NA","40741.81140000019","13559.519100000216","42037.792699999954","NA","300421.8412","13577.029199999743","302069.2458000003","302069.91019999987","15619.866000000002","300634.17240000033","NA","301245.08739999967","300413.18789999967","Extended template","0","1.7927999960884335","50","yes","1024"
"0","0","0.03574509795982843","0.03574509795982843","white","yes","psycho","psycho","psycho","0","uniform","0","undefined","0","a","1","0","53","1","1","0","0","0","0","NA","53","0","53","53","0","53","1","53","53","Tue Dec  5 18:23:41 2023","A template containing a practice and an experimental phase","yes","TalkFile_언어학과심리실험_B조_기말과제용심리실험.osexp.osexp","C:\Users\rober\OneDrive\Documents\Downloads","no","mono","no","18","no","black","no","yes","768","psycho","50","50","0","C:/Users/rober/OneDrive/바탕 화면/subject-4.csv","psycho","Lentiform Loewenfeld","3.3.14","no","바다","natural","same phoneme","0","None","NA","a","NA","a","None","a","0.030199999862816185","NA","1294.0558999998757","NA","2040.9657000000152","0.030199999862816185","485.9014999992796","2","psycho","1024","2","48000","-16","experiment","4","even","바구니","artifactual","NA","302945.53129999986","42039.96889999962","42039.85939999984","NA","40741.81140000019","13559.519100000216","42037.792699999954","NA","302232.71170000045","13577.029199999743","303538.7154","303539.3648999998","15619.866000000002","302440.1940999996","NA","303051.53880000033","302224.45510000037","Extended template","0","1.8229999959512497","51","yes","1024"
"0","0","0.035599999923271335","0.035599999923271335","white","yes","psycho","psycho","psycho","0","uniform","0","undefined","0","n","1","0","54","1","1","0","0","0","0","NA","54","0","54","54","0","54","1","54","54","Tue Dec  5 18:23:41 2023","A template containing a practice and an experimental phase","yes","TalkFile_언어학과심리실험_B조_기말과제용심리실험.osexp.osexp","C:\Users\rober\OneDrive\Documents\Downloads","no","mono","no","18","no","black","no","yes","768","psycho","51","51","0","C:/Users/rober/OneDrive/바탕 화면/subject-4.csv","psycho","Lentiform Loewenfeld","3.3.14","no","모래","natural","similar-environmental","0","None","NA","a","NA","a","None","n","0.028200000058859587","NA","1294.0558999998757","NA","2040.9657000000152","0.028200000058859587","2321.3516999994754","2","psycho","1024","2","48000","-16","experiment","4","even","자갈","natural","NA","304420.7884999996","42039.96889999962","42039.85939999984","NA","40741.81140000019","13559.519100000216","42037.792699999954","NA","303705.94580000034","13577.029199999743","306848.90149999957","306849.5122000004","15619.866000000002","303913.96729999996","NA","304526.2816000004","303697.03860000026","Extended template","0","1.8511999960101093","52","yes","1024"
"0","0","0.0356433961565446","0.0356433961565446","white","yes","psycho","psycho","psycho","0","uniform","0","undefined","0","a","0","0","55","1","1","0","0","0","0","NA","55","0","55","55","0","55","1","55","55","Tue Dec  5 18:23:41 2023","A template containing a practice and an experimental phase","yes","TalkFile_언어학과심리실험_B조_기말과제용심리실험.osexp.osexp","C:\Users\rober\OneDrive\Documents\Downloads","no","mono","no","18","no","black","no","yes","768","psycho","52","52","0","C:/Users/rober/OneDrive/바탕 화면/subject-4.csv","psycho","Lentiform Loewenfeld","3.3.14","no","바다","natural","same phoneme","0","None","NA","a","NA","a","None","n","0.03790000028675422","NA","1294.0558999998757","NA","2040.9657000000152","0.03790000028675422","4450.622399999702","2","psycho","1024","2","48000","-16","experiment","4","even","바닥","artifactual","NA","307705.18189999985","42039.96889999962","42039.85939999984","NA","40741.81140000019","13559.519100000216","42037.792699999954","NA","306990.4981999998","13577.029199999743","312263.5737999999","312264.40199999977","15619.866000000002","307199.15589999984","NA","307810.79520000005","306982.2658000003","Extended template","0","1.8890999962968635","53","yes","1024"
"0","0","0.03551111103634294","0.03551111103634294","white","yes","psycho","psycho","psycho","0","uniform","0","undefined","0","n","0","0","56","1","1","0","0","0","0","NA","56","0","56","56","0","56","1","56","56","Tue Dec  5 18:23:41 2023","A template containing a practice and an experimental phase","yes","TalkFile_언어학과심리실험_B조_기말과제용심리실험.osexp.osexp","C:\Users\rober\OneDrive\Documents\Downloads","no","mono","no","18","no","black","no","yes","768","psycho","53","53","0","C:/Users/rober/OneDrive/바탕 화면/subject-4.csv","psycho","Lentiform Loewenfeld","3.3.14","no","달","artifactual","same phoneme","0","None","NA","a","NA","a","None","a","0.028499999665655196","NA","1294.0558999998757","NA","2040.9657000000152","0.028499999665655196","6871.465499999409","2","psycho","1024","2","48000","-16","experiment","4","even","달력","natural","NA","313118.2273000004","42039.96889999962","42039.85939999984","NA","40741.81140000019","13559.519100000216","42037.792699999954","NA","312403.6090999998","13577.029199999743","320096.4954000001","320097.1182000003","15619.866000000002","312612.03300000035","NA","313223.8223000004","312393.98110000003","Extended template","0","1.9175999959625187","54","yes","1024"
"0","0","0.03545818174435143","0.03545818174435143","white","yes","psycho","psycho","psycho","0","uniform","0","undefined","0","a","1","0","57","1","1","0","0","0","0","NA","57","0","57","57","0","57","1","57","57","Tue Dec  5 18:23:41 2023","A template containing a practice and an experimental phase","yes","TalkFile_언어학과심리실험_B조_기말과제용심리실험.osexp.osexp","C:\Users\rober\OneDrive\Documents\Downloads","no","mono","no","18","no","black","no","yes","768","psycho","54","54","0","C:/Users/rober/OneDrive/바탕 화면/subject-4.csv","psycho","Lentiform Loewenfeld","3.3.14","no","도미노","artifactual","same phoneme","0","None","NA","a","NA","a","None","a","0.03259999997681007","NA","1294.0558999998757","NA","2040.9657000000152","0.03259999997681007","1129.8773999997065","2","psycho","1024","2","48000","-16","experiment","4","even","도서","artifactual","NA","320950.51570000034","42039.96889999962","42039.85939999984","NA","40741.81140000019","13559.519100000216","42037.792699999954","NA","320236.3882999998","13577.029199999743","322188.04670000006","322188.71219999983","15619.866000000002","320444.88430000003","NA","321056.6501000003","320228.3426000004","Extended template","0","1.9501999959393288","55","yes","1024"
"0","0","0.035321428495470694","0.035321428495470694","white","yes","psycho","psycho","psycho","0","uniform","0","undefined","0","n","1","0","58","1","1","0","0","0","0","NA","58","0","58","58","0","58","1","58","58","Tue Dec  5 18:23:41 2023","A template containing a practice and an experimental phase","yes","TalkFile_언어학과심리실험_B조_기말과제용심리실험.osexp.osexp","C:\Users\rober\OneDrive\Documents\Downloads","no","mono","no","18","no","black","no","yes","768","psycho","55","55","0","C:/Users/rober/OneDrive/바탕 화면/subject-4.csv","psycho","Lentiform Loewenfeld","3.3.14","no","대학교","artifactual","no-correlation","0","None","NA","a","NA","a","None","n","0.027799999807029963","NA","1294.0558999998757","NA","2040.9657000000152","0.027799999807029963","1365.959499999939","2","psycho","1024","2","48000","-16","experiment","4","even","계곡","natural","NA","323045.7368999996","42039.96889999962","42039.85939999984","NA","40741.81140000019","13559.519100000216","42037.792699999954","NA","322331.5425999999","13577.029199999743","324518.3145999999","324518.96300000045","15619.866000000002","322539.5117999997","NA","323151.05610000045","322322.34719999996","Extended template","0","1.9779999957463588","56","yes","1024"
"0","0","0.03553859642163029","0.03553859642163029","white","yes","psycho","psycho","psycho","0","uniform","0","undefined","0","a","1","0","59","1","1","0","0","0","0","NA","59","0","59","59","0","59","1","59","59","Tue Dec  5 18:23:41 2023","A template containing a practice and an experimental phase","yes","TalkFile_언어학과심리실험_B조_기말과제용심리실험.osexp.osexp","C:\Users\rober\OneDrive\Documents\Downloads","no","mono","no","18","no","black","no","yes","768","psycho","56","56","0","C:/Users/rober/OneDrive/바탕 화면/subject-4.csv","psycho","Lentiform Loewenfeld","3.3.14","no","바람","natural","similar-environmental","0","None","NA","a","NA","a","None","a","0.047700000286567956","NA","1294.0558999998757","NA","2040.9657000000152","0.047700000286567956","1191.9748000000836","2","psycho","1024","2","48000","-16","experiment","4","even","창문","artifactual","NA","325373.29599999974","42039.96889999962","42039.85939999984","NA","40741.81140000019","13559.519100000216","42037.792699999954","NA","324660.4106000004","13577.029199999743","326673.08400000003","326673.8091999996","15619.866000000002","324867.8946","NA","325479.58339999965","324652.06519999995","Extended template","0","2.0256999960329267","57","yes","1024"
"0","0","0.03546206890251628","0.03546206890251628","white","yes","psycho","psycho","psycho","0","uniform","0","undefined","0","n","1","0","60","1","1","0","0","0","0","NA","60","0","60","60","0","60","1","60","60","Tue Dec  5 18:23:41 2023","A template containing a practice and an experimental phase","yes","TalkFile_언어학과심리실험_B조_기말과제용심리실험.osexp.osexp","C:\Users\rober\OneDrive\Documents\Downloads","no","mono","no","18","no","black","no","yes","768","psycho","57","57","0","C:/Users/rober/OneDrive/바탕 화면/subject-4.csv","psycho","Lentiform Loewenfeld","3.3.14","no","상새고","non-word","non-word","0","None","NA","a","NA","a","None","n","0.031100000313017517","NA","1294.0558999998757","NA","2040.9657000000152","0.031100000313017517","5639.563400000043","2","psycho","1024","2","48000","-16","experiment","4","even","나뭇잎","natural","NA","327531.02670000045","42039.96889999962","42039.85939999984","NA","40741.81140000019","13559.519100000216","42037.792699999954","NA","326816.6933000002","13577.029199999743","333277.4602","333278.5481000001","15619.866000000002","327024.8471000004","NA","327636.5925","326808.7979000002","Extended template","0","2.0567999963459442","58","yes","1024"
"0","0","0.03556271179633953","0.03556271179633953","white","yes","psycho","psycho","psycho","0","uniform","0","undefined","0","n","1","0","61","1","1","0","0","0","0","NA","61","0","61","61","0","61","1","61","61","Tue Dec  5 18:23:41 2023","A template containing a practice and an experimental phase","yes","TalkFile_언어학과심리실험_B조_기말과제용심리실험.osexp.osexp","C:\Users\rober\OneDrive\Documents\Downloads","no","mono","no","18","no","black","no","yes","768","psycho","58","58","0","C:/Users/rober/OneDrive/바탕 화면/subject-4.csv","psycho","Lentiform Loewenfeld","3.3.14","no","전구","artifactual","similar-environmental","0","None","NA","a","NA","a","None","n","0.04139999963808805","NA","1294.0558999998757","NA","2040.9657000000152","0.04139999963808805","11263.316700000316","2","psycho","1024","2","48000","-16","experiment","4","even","빛","natural","NA","334131.08139999985","42039.96889999962","42039.85939999984","NA","40741.81140000019","13559.519100000216","42037.792699999954","NA","333417.80050000036","13577.029199999743","345501.90310000017","345502.8496000004","15619.866000000002","333625.9609999997","NA","334236.9541999997","333409.7479000002","Extended template","0","2.0981999959840323","59","yes","1024"
"0","0","0.035499999921376","0.035499999921376","white","yes","psycho","psycho","psycho","0","uniform","0","undefined","0","a","1","0","62","1","1","0","0","0","0","NA","62","0","62","62","0","62","1","62","62","Tue Dec  5 18:23:41 2023","A template containing a practice and an experimental phase","yes","TalkFile_언어학과심리실험_B조_기말과제용심리실험.osexp.osexp","C:\Users\rober\OneDrive\Documents\Downloads","no","mono","no","18","no","black","no","yes","768","psycho","59","59","0","C:/Users/rober/OneDrive/바탕 화면/subject-4.csv","psycho","Lentiform Loewenfeld","3.3.14","no","호수","natural","no-correlation","0","None","NA","a","NA","a","None","a","0.03179999929852784","NA","1294.0558999998757","NA","2040.9657000000152","0.03179999929852784","1925.6985000002314","2","psycho","1024","2","48000","-16","experiment","4","even","화장실","artifactual","NA","346361.9349999999","42039.96889999962","42039.85939999984","NA","40741.81140000019","13559.519100000216","42037.792699999954","NA","345648.76129999995","13577.029199999743","348394.95650000026","348395.7131999996","15619.866000000002","345856.7647","NA","346467.8604999999","345640.04449999996","Extended template","0","2.12999999528256","60","yes","1024"
"0","0","0.03556229500565201","0.03556229500565201","white","yes","psycho","psycho","psycho","0","uniform","0","undefined","0","a","0","0","63","1","1","0","0","0","0","NA","63","0","63","63","0","63","1","63","63","Tue Dec  5 18:23:41 2023","A template containing a practice and an experimental phase","yes","TalkFile_언어학과심리실험_B조_기말과제용심리실험.osexp.osexp","C:\Users\rober\OneDrive\Documents\Downloads","no","mono","no","18","no","black","no","yes","768","psycho","60","60","0","C:/Users/rober/OneDrive/바탕 화면/subject-4.csv","psycho","Lentiform Loewenfeld","3.3.14","no","바다","natural","similar-environmental","0","None","NA","a","NA","a","None","n","0.03930000006221235","NA","1294.0558999998757","NA","2040.9657000000152","0.03930000006221235","1153.8577000001096","2","psycho","1024","2","48000","-16","experiment","4","even","배","artifactual","NA","349249.1315999996","42039.96889999962","42039.85939999984","NA","40741.81140000019","13559.519100000216","42037.792699999954","NA","348535.94340000016","13577.029199999743","350509.9798000001","350510.69089999964","15619.866000000002","348743.8678999997","NA","349354.7976999998","348527.1246000002","Extended template","0","2.1692999953447725","61","yes","1024"
"0","0","0.03551935477005299","0.03551935477005299","white","yes","psycho","psycho","psycho","0","uniform","0","undefined","0","x","1","0","64","1","1","0","0","0","0","NA","64","0","64","64","0","64","1","64","64","Tue Dec  5 18:23:41 2023","A template containing a practice and an experimental phase","yes","TalkFile_언어학과심리실험_B조_기말과제용심리실험.osexp.osexp","C:\Users\rober\OneDrive\Documents\Downloads","no","mono","no","18","no","black","no","yes","768","psycho","61","61","0","C:/Users/rober/OneDrive/바탕 화면/subject-4.csv","psycho","Lentiform Loewenfeld","3.3.14","no","절벽","natural","non-word","0","None","NA","a","NA","a","None","x","0.03290000039851293","NA","1294.0558999998757","NA","2040.9657000000152","0.03290000039851293","3315.20600000018","2","psycho","1024","2","48000","-16","experiment","4","even","물로프","non-word","NA","351369.8433999998","42039.96889999962","42039.85939999984","NA","40741.81140000019","13559.519100000216","42037.792699999954","NA","350656.1007","13577.029199999743","354792.17789999984","354792.9513999998","15619.866000000002","350864.04310000036","NA","351475.2136999996","350647.5721999996","Extended template","0","2.2021999957432854","62","yes","1024"
"0","0","0.03543333326536138","0.03543333326536138","white","yes","psycho","psycho","psycho","0","uniform","0","undefined","0","n","1","0","65","1","1","0","0","0","0","NA","65","0","65","65","0","65","1","65","65","Tue Dec  5 18:23:41 2023","A template containing a practice and an experimental phase","yes","TalkFile_언어학과심리실험_B조_기말과제용심리실험.osexp.osexp","C:\Users\rober\OneDrive\Documents\Downloads","no","mono","no","18","no","black","no","yes","768","psycho","62","62","0","C:/Users/rober/OneDrive/바탕 화면/subject-4.csv","psycho","Lentiform Loewenfeld","3.3.14","no","물고기","natural","inclusive","0","None","NA","a","NA","a","None","n","0.03009999997448176","NA","1294.0558999998757","NA","2040.9657000000152","0.03009999997448176","1082.9831999999587","2","psycho","1024","2","48000","-16","experiment","4","even","연어","natural","NA","355647.16279999993","42039.96889999962","42039.85939999984","NA","40741.81140000019","13559.519100000216","42037.792699999954","NA","354934.36680000013","13577.029199999743","356837.12670000026","356837.84990000003","15619.866000000002","355141.9739000003","NA","355752.8179000001","354925.7466999998","Extended template","0","2.232299995717767","63","yes","1024"
"0","0","0.03532343742961075","0.03532343742961075","white","yes","psycho","psycho","psycho","0","uniform","0","undefined","0","n","1","0","66","1","1","0","0","0","0","NA","66","0","66","66","0","66","1","66","66","Tue Dec  5 18:23:41 2023","A template containing a practice and an experimental phase","yes","TalkFile_언어학과심리실험_B조_기말과제용심리실험.osexp.osexp","C:\Users\rober\OneDrive\Documents\Downloads","no","mono","no","18","no","black","no","yes","768","psycho","63","63","0","C:/Users/rober/OneDrive/바탕 화면/subject-4.csv","psycho","Lentiform Loewenfeld","3.3.14","no","곡물","natural","inclusive","0","None","NA","a","NA","a","None","n","0.028399999777320772","NA","1294.0558999998757","NA","2040.9657000000152","0.028399999777320772","750.4536999995471","2","psycho","1024","2","48000","-16","experiment","4","even","밀","natural","NA","357706.7156000003","42039.96889999962","42039.85939999984","NA","40741.81140000019","13559.519100000216","42037.792699999954","NA","356993.6224000003","13577.029199999743","358564.1839","358564.9008999999","15619.866000000002","357201.6317999996","NA","357812.3352000002","356984.63530000026","Extended template","0","2.260699995495088","64","yes","1024"
"0","0","0.035376923019850015","0.035376923019850015","white","yes","psycho","psycho","psycho","0","uniform","0","undefined","0","n","1","0","67","1","1","0","0","0","0","NA","67","0","67","67","0","67","1","67","67","Tue Dec  5 18:23:41 2023","A template containing a practice and an experimental phase","yes","TalkFile_언어학과심리실험_B조_기말과제용심리실험.osexp.osexp","C:\Users\rober\OneDrive\Documents\Downloads","no","mono","no","18","no","black","no","yes","768","psycho","64","64","0","C:/Users/rober/OneDrive/바탕 화면/subject-4.csv","psycho","Lentiform Loewenfeld","3.3.14","no","세금","artifactual","same phoneme","0","None","NA","a","NA","a","None","n","0.038800000795163214","NA","1294.0558999998757","NA","2040.9657000000152","0.038800000795163214","924.8073999997578","2","psycho","1024","2","48000","-16","experiment","4","even","세포","natural","NA","359423.9601999998","42039.96889999962","42039.85939999984","NA","40741.81140000019","13559.519100000216","42037.792699999954","NA","358705.2589000004","13577.029199999743","360456.2036999996","360456.9917999997","15619.866000000002","358917.91680000006","NA","359529.56220000033","358696.5104999999","Extended template","0","2.299499996290251","65","yes","1024"
"0","0","0.03531363631047883","0.03531363631047883","white","yes","psycho","psycho","psycho","0","uniform","0","undefined","0","n","1","0","68","1","1","0","0","0","0","NA","68","0","68","68","0","68","1","68","68","Tue Dec  5 18:23:41 2023","A template containing a practice and an experimental phase","yes","TalkFile_언어학과심리실험_B조_기말과제용심리실험.osexp.osexp","C:\Users\rober\OneDrive\Documents\Downloads","no","mono","no","18","no","black","no","yes","768","psycho","65","65","0","C:/Users/rober/OneDrive/바탕 화면/subject-4.csv","psycho","Lentiform Loewenfeld","3.3.14","no","가을","natural","similar-environmental","0","None","NA","a","NA","a","None","n","0.03120000020135194","NA","1294.0558999998757","NA","2040.9657000000152","0.03120000020135194","950.4256000000169","2","psycho","1024","2","48000","-16","experiment","4","even","낙엽","natural","NA","361310.37259999994","42039.96889999962","42039.85939999984","NA","40741.81140000019","13559.519100000216","42037.792699999954","NA","360597.2198999998","13577.029199999743","362368.0733000001","362368.8826999996","15619.866000000002","360805.08490000013","NA","361416.23609999986","360588.6645000001","Extended template","0","2.330699996491603","66","yes","1024"
"0","0","0.03519999994642237","0.03519999994642237","white","yes","psycho","psycho","psycho","0","uniform","0","undefined","0","a","1","0","69","1","1","0","0","0","0","NA","69","0","69","69","0","69","1","69","69","Tue Dec  5 18:23:41 2023","A template containing a practice and an experimental phase","yes","TalkFile_언어학과심리실험_B조_기말과제용심리실험.osexp.osexp","C:\Users\rober\OneDrive\Documents\Downloads","no","mono","no","18","no","black","no","yes","768","psycho","66","66","0","C:/Users/rober/OneDrive/바탕 화면/subject-4.csv","psycho","Lentiform Loewenfeld","3.3.14","no","카메라","artifactual","inclusive","0","None","NA","a","NA","a","None","a","0.02769999991869554","NA","1294.0558999998757","NA","2040.9657000000152","0.02769999991869554","864.7725000000792","2","psycho","1024","2","48000","-16","experiment","4","even","렌즈","artifactual","NA","363228.53529999976","42039.96889999962","42039.85939999984","NA","40741.81140000019","13559.519100000216","42037.792699999954","NA","362514.0492999999","13577.029199999743","364200.0667000002","364200.8087000004","15619.866000000002","362721.8349000004","NA","363333.96249999985","362505.11040000035","Extended template","0","2.3583999964102986","67","yes","1024"
"0","0","0.03538823523890374","0.03538823523890374","white","yes","psycho","psycho","psycho","0","uniform","0","undefined","0","n","1","0","70","1","1","0","0","0","0","NA","70","0","70","70","0","70","1","70","70","Tue Dec  5 18:23:41 2023","A template containing a practice and an experimental phase","yes","TalkFile_언어학과심리실험_B조_기말과제용심리실험.osexp.osexp","C:\Users\rober\OneDrive\Documents\Downloads","no","mono","no","18","no","black","no","yes","768","psycho","67","67","0","C:/Users/rober/OneDrive/바탕 화면/subject-4.csv","psycho","Lentiform Loewenfeld","3.3.14","no","산","natural","similar-environmental","0","None","NA","a","NA","a","None","n","0.047999999835155904","NA","1294.0558999998757","NA","2040.9657000000152","0.047999999835155904","948.7011000000639","2","psycho","1024","2","48000","-16","experiment","4","even","계곡","natural","NA","365055.0137","42039.96889999962","42039.85939999984","NA","40741.81140000019","13559.519100000216","42037.792699999954","NA","364340.80090000044","13577.029199999743","366111.15729999985","366111.9767999999","15619.866000000002","364549.45060000045","NA","365161.0093999998","364331.7251999997","Extended template","0","2.4063999962454545","68","yes","1024"
"0","0","0.03526956515976791","0.03526956515976791","white","yes","psycho","psycho","psycho","0","uniform","0","undefined","0","x","1","0","71","1","1","0","0","0","0","NA","71","0","71","71","0","71","1","71","71","Tue Dec  5 18:23:41 2023","A template containing a practice and an experimental phase","yes","TalkFile_언어학과심리실험_B조_기말과제용심리실험.osexp.osexp","C:\Users\rober\OneDrive\Documents\Downloads","no","mono","no","18","no","black","no","yes","768","psycho","68","68","0","C:/Users/rober/OneDrive/바탕 화면/subject-4.csv","psycho","Lentiform Loewenfeld","3.3.14","no","벨트","artifactual","non-word","0","None","NA","a","NA","a","None","x","0.027199999778531492","NA","1294.0558999998757","NA","2040.9657000000152","0.027199999778531492","879.5337000001455","2","psycho","1024","2","48000","-16","experiment","4","even","진웬","non-word","NA","366966.2760000001","42039.96889999962","42039.85939999984","NA","40741.81140000019","13559.519100000216","42037.792699999954","NA","366252.5561000002","13577.029199999743","367952.7195999999","367953.8298999996","15619.866000000002","366460.8306999999","NA","367071.8927999997","366243.4854000003","Extended template","0","2.433599996023986","69","yes","1024"
"0","0","0.03519714279755135","0.03519714279755135","white","yes","psycho","psycho","psycho","0","uniform","0","undefined","0","a","1","0","72","1","1","0","0","0","0","NA","72","0","72","72","0","72","1","72","72","Tue Dec  5 18:23:41 2023","A template containing a practice and an experimental phase","yes","TalkFile_언어학과심리실험_B조_기말과제용심리실험.osexp.osexp","C:\Users\rober\OneDrive\Documents\Downloads","no","mono","no","18","no","black","no","yes","768","psycho","69","69","0","C:/Users/rober/OneDrive/바탕 화면/subject-4.csv","psycho","Lentiform Loewenfeld","3.3.14","no","성적표","artifactual","same phoneme","0","None","NA","a","NA","a","None","a","0.030199999804608524","NA","1294.0558999998757","NA","2040.9657000000152","0.030199999804608524","2629.675000000163","2","psycho","1024","2","48000","-16","experiment","4","even","성냥","artifactual","NA","368815.3223999998","42039.96889999962","42039.85939999984","NA","40741.81140000019","13559.519100000216","42037.792699999954","NA","368101.05079999997","13577.029199999743","371553.1190000002","371553.89600000036","15619.866000000002","368308.9495000004","NA","368921.89959999995","368092.2389999996","Extended template","0","2.4637999958285945","70","yes","1024"
"0","0","0.035095774581632086","0.035095774581632086","white","yes","psycho","psycho","psycho","0","uniform","0","undefined","0","n","0","0","73","1","1","0","0","0","0","NA","73","0","73","73","0","73","1","73","73","Tue Dec  5 18:23:41 2023","A template containing a practice and an experimental phase","yes","TalkFile_언어학과심리실험_B조_기말과제용심리실험.osexp.osexp","C:\Users\rober\OneDrive\Documents\Downloads","no","mono","no","18","no","black","no","yes","768","psycho","70","70","0","C:/Users/rober/OneDrive/바탕 화면/subject-4.csv","psycho","Lentiform Loewenfeld","3.3.14","no","늪","natural","similar-environmental","0","None","NA","a","NA","a","None","a","0.027999999467283487","NA","1294.0558999998757","NA","2040.9657000000152","0.027999999467283487","6308.51199999958","2","psycho","1024","2","48000","-16","experiment","4","even","악어","natural","NA","372436.1685000004","42039.96889999962","42039.85939999984","NA","40741.81140000019","13559.519100000216","42037.792699999954","NA","371722.8179000003","13577.029199999743","378852.95250000036","378853.7470000001","15619.866000000002","371931.2591999997","NA","372543.0942000003","371711.5075000002","Extended template","0","2.491799995295878","71","yes","1024"
"0","0","0.035069444378374705","0.035069444378374705","white","yes","psycho","psycho","psycho","0","uniform","0","undefined","0","x","1","0","74","1","1","0","0","0","0","NA","74","0","74","74","0","74","1","74","74","Tue Dec  5 18:23:41 2023","A template containing a practice and an experimental phase","yes","TalkFile_언어학과심리실험_B조_기말과제용심리실험.osexp.osexp","C:\Users\rober\OneDrive\Documents\Downloads","no","mono","no","18","no","black","no","yes","768","psycho","71","71","0","C:/Users/rober/OneDrive/바탕 화면/subject-4.csv","psycho","Lentiform Loewenfeld","3.3.14","no","시계","artifactual","non-word","0","None","NA","a","NA","a","None","x","0.03319999994710088","NA","1294.0558999998757","NA","2040.9657000000152","0.03319999994710088","3652.1781999999657","2","psycho","1024","2","48000","-16","experiment","4","even","책솜","non-word","NA","379713.1202999999","42039.96889999962","42039.85939999984","NA","40741.81140000019","13559.519100000216","42037.792699999954","NA","378998.64009999967","13577.029199999743","383472.68429999985","383473.52390000015","15619.866000000002","379208.05089999974","NA","379818.8952","378989.99860000005","Extended template","0","2.524999995242979","72","yes","1024"
"0","0","0.03499589034119758","0.03499589034119758","white","yes","psycho","psycho","psycho","0","uniform","0","undefined","0","a","1","0","75","1","1","0","0","0","0","NA","75","0","75","75","0","75","1","75","75","Tue Dec  5 18:23:41 2023","A template containing a practice and an experimental phase","yes","TalkFile_언어학과심리실험_B조_기말과제용심리실험.osexp.osexp","C:\Users\rober\OneDrive\Documents\Downloads","no","mono","no","18","no","black","no","yes","768","psycho","72","72","0","C:/Users/rober/OneDrive/바탕 화면/subject-4.csv","psycho","Lentiform Loewenfeld","3.3.14","no","구름","natural","same phoneme","0","None","NA","a","NA","a","None","a","0.029699999664444476","NA","1294.0558999998757","NA","2040.9657000000152","0.029699999664444476","3113.7925000002724","2","psycho","1024","2","48000","-16","experiment","4","even","구슬","artifactual","NA","384334.0952999997","42039.96889999962","42039.85939999984","NA","40741.81140000019","13559.519100000216","42037.792699999954","NA","383617.73389999964","13577.029199999743","387555.8398000003","387556.91000000027","15619.866000000002","383827.6169000001","NA","384440.5532999999","383609.7818999997","Extended template","0","2.5546999949074234","73","yes","1024"
"0","0","0.03493918911890186","0.03493918911890186","white","yes","psycho","psycho","psycho","0","uniform","0","undefined","0","n","1","0","76","1","1","0","0","0","0","NA","76","0","76","76","0","76","1","76","76","Tue Dec  5 18:23:41 2023","A template containing a practice and an experimental phase","yes","TalkFile_언어학과심리실험_B조_기말과제용심리실험.osexp.osexp","C:\Users\rober\OneDrive\Documents\Downloads","no","mono","no","18","no","black","no","yes","768","psycho","73","73","0","C:/Users/rober/OneDrive/바탕 화면/subject-4.csv","psycho","Lentiform Loewenfeld","3.3.14","no","멜블옴","non-word","non-word","0","None","NA","a","NA","a","None","n","0.030799999891314656","NA","1294.0558999998757","NA","2040.9657000000152","0.030799999891314656","919.3817000004929","2","psycho","1024","2","48000","-16","experiment","4","even","폭포","natural","NA","388415.88429999957","42039.96889999962","42039.85939999984","NA","40741.81140000019","13559.519100000216","42037.792699999954","NA","387702.6134999996","13577.029199999743","389442.3790000001","389443.2501000001","15619.866000000002","387911.0400999998","NA","388521.45409999957","387693.3916999997","Extended template","0","2.585499994798738","74","yes","1024"
"0","0","0.03484399992807691","0.03484399992807691","white","yes","psycho","psycho","psycho","0","uniform","0","undefined","0","a","1","0","77","1","1","0","0","0","0","NA","77","0","77","77","0","77","1","77","77","Tue Dec  5 18:23:41 2023","A template containing a practice and an experimental phase","yes","TalkFile_언어학과심리실험_B조_기말과제용심리실험.osexp.osexp","C:\Users\rober\OneDrive\Documents\Downloads","no","mono","no","18","no","black","no","yes","768","psycho","74","74","0","C:/Users/rober/OneDrive/바탕 화면/subject-4.csv","psycho","Lentiform Loewenfeld","3.3.14","no","로봇","artifactual","same phoneme","0","None","NA","a","NA","a","None","a","0.027799999807029963","NA","1294.0558999998757","NA","2040.9657000000152","0.027799999807029963","864.9169999998994","2","psycho","1024","2","48000","-16","experiment","4","even","로켓","artifactual","NA","390306.7891999999","42039.96889999962","42039.85939999984","NA","40741.81140000019","13559.519100000216","42037.792699999954","NA","389592.2941999998","13577.029199999743","391279.1390000002","391279.95509999985","15619.866000000002","389800.4855999998","NA","390412.8025","389582.8100999997","Extended template","0","2.613299994605768","75","yes","1024"
"0","0","0.03479473676375883","0.03479473676375883","white","yes","psycho","psycho","psycho","0","uniform","0","undefined","0","a","1","0","78","1","1","0","0","0","0","NA","78","0","78","78","0","78","1","78","78","Tue Dec  5 18:23:41 2023","A template containing a practice and an experimental phase","yes","TalkFile_언어학과심리실험_B조_기말과제용심리실험.osexp.osexp","C:\Users\rober\OneDrive\Documents\Downloads","no","mono","no","18","no","black","no","yes","768","psycho","75","75","0","C:/Users/rober/OneDrive/바탕 화면/subject-4.csv","psycho","Lentiform Loewenfeld","3.3.14","no","성냥","artifactual","same phoneme","0","None","NA","a","NA","a","None","a","0.031099999439902604","NA","1294.0558999998757","NA","2040.9657000000152","0.031099999439902604","6958.1258000007365","2","psycho","1024","2","48000","-16","experiment","4","even","성적표","artifactual","NA","392134.0157000004","42039.96889999962","42039.85939999984","NA","40741.81140000019","13559.519100000216","42037.792699999954","NA","391421.6636000001","13577.029199999743","399200.51020000025","399201.3520999999","15619.866000000002","391628.8827999997","NA","392240.8551999997","391413.21960000007","Extended template","0","2.6443999940456706","76","yes","1024"
"0","0","0.034716883040688686","0.034716883040688686","white","yes","psycho","psycho","psycho","0","uniform","0","undefined","0","n","1","0","79","1","1","0","0","0","0","NA","79","0","79","79","0","79","1","79","79","Tue Dec  5 18:23:41 2023","A template containing a practice and an experimental phase","yes","TalkFile_언어학과심리실험_B조_기말과제용심리실험.osexp.osexp","C:\Users\rober\OneDrive\Documents\Downloads","no","mono","no","18","no","black","no","yes","768","psycho","76","76","0","C:/Users/rober/OneDrive/바탕 화면/subject-4.csv","psycho","Lentiform Loewenfeld","3.3.14","no","오일","natural","same phoneme","0","None","NA","a","NA","a","None","n","0.028800000087358057","NA","1294.0558999998757","NA","2040.9657000000152","0.028800000087358057","8370.216900000756","2","psycho","1024","2","48000","-16","experiment","4","even","오리","natural","NA","400056.9476000001","42039.96889999962","42039.85939999984","NA","40741.81140000019","13559.519100000216","42037.792699999954","NA","399341.6155000004","13577.029199999743","408534.31790000014","408535.1465000003","15619.866000000002","399550.87079999974","NA","400162.6650999997","399332.9823000004","Extended template","0","2.6731999941330287","77","yes","1024"
"0","0","0.03467948710647015","0.03467948710647015","white","yes","psycho","psycho","psycho","0","uniform","0","undefined","0","a","1","0","80","1","1","0","0","0","0","NA","80","0","80","80","0","80","1","80","80","Tue Dec  5 18:23:41 2023","A template containing a practice and an experimental phase","yes","TalkFile_언어학과심리실험_B조_기말과제용심리실험.osexp.osexp","C:\Users\rober\OneDrive\Documents\Downloads","no","mono","no","18","no","black","no","yes","768","psycho","77","77","0","C:/Users/rober/OneDrive/바탕 화면/subject-4.csv","psycho","Lentiform Loewenfeld","3.3.14","no","안음풍","non-word","non-word","0","None","NA","a","NA","a","None","a","0.03180000017164275","NA","1294.0558999998757","NA","2040.9657000000152","0.03180000017164275","14902.086299999617","2","psycho","1024","2","48000","-16","experiment","4","even","의자","artifactual","NA","409391.4470999998","42039.96889999962","42039.85939999984","NA","40741.81140000019","13559.519100000216","42037.792699999954","NA","408678.0048999999","13577.029199999743","424404.31679999985","424405.22969999985","15619.866000000002","408886.39969999983","NA","409500.6332000003","408670.0305000004","Extended template","0","2.7049999943046714","78","yes","1024"
