"acc","accuracy","average_response_time","avg_rt","background","bidi","canvas_backend","clock_backend","color_backend","compensation","coordinates","correct","correct_instructions","correct_keyboard_response","correct_response","correct_target","count_about_this_template","count_blank","count_block_loop","count_block_sequence","count_end_of_experiment","count_end_of_practice","count_experiment","count_experimental_loop","count_feedback","count_fixation","count_instructions","count_keyboard_response","count_logger","count_practice_loop","count_prime","count_reset_feedback","count_target","count_trial_sequence","datetime","description","disable_garbage_collection","experiment_file","experiment_path","font_bold","font_family","font_italic","font_size","font_underline","foreground","form_clicks","fullscreen","height","keyboard_backend","live_row","live_row_block_loop","live_row_practice_loop","logfile","mouse_backend","opensesame_codename","opensesame_version","practice","prime","prime_condition","relation","repeat_cycle","response","response_end_of_experiment","response_end_of_practice","response_feedback","response_instructions","response_keyboard_response","response_target","response_time","response_time_end_of_experiment","response_time_end_of_practice","response_time_feedback","response_time_instructions","response_time_keyboard_response","response_time_target","round_decimals","sampler_backend","sound_buf_size","sound_channels","sound_freq","sound_sample_size","start","subject_nr","subject_parity","target","target_condition","time_about_this_template","time_blank","time_block_loop","time_block_sequence","time_end_of_experiment","time_end_of_practice","time_experiment","time_experimental_loop","time_feedback","time_fixation","time_instructions","time_keyboard_response","time_logger","time_practice_loop","time_prime","time_reset_feedback","time_target","time_trial_sequence","title","total_correct","total_response_time","total_responses","uniform_coordinates","width"
"0","0","0.028299999939918052","0.028299999939918052","white","yes","psycho","psycho","psycho","0","uniform","0","undefined","0","n","0","0","0","0","0","0","0","0","0","NA","0","0","0","0","0","0","0","0","0","Tue Dec  5 18:44:23 2023","A template containing a practice and an experimental phase","yes","TalkFile_언어학과심리실험_B조_기말과제용심리실험.osexp.osexp","C:\Users\rober\OneDrive\Documents\Downloads","no","mono","no","18","no","black","no","yes","768","psycho","0","0","0","C:/Users/rober/OneDrive/바탕 화면/subject-5.csv","psycho","Lentiform Loewenfeld","3.3.14","yes","달","artifactual","same phoneme","0","None","NA","NA","NA","a","None","a","0.028299999939918052","NA","NA","NA","9012.323799999649","0.028299999939918052","686.0123000005842","2","psycho","1024","2","48000","-16","experiment","5","odd","달력","natural","NA","24923.260700000355","24046.430400000645","24046.188000000257","NA","NA","15015.080600000147","NA","NA","24209.682100000464","15030.971900000623","25715.646700000434","25715.848000000733","24045.29679999996","24417.69430000022","NA","25028.835000000072","24196.26040000003","Extended template","0","0.028299999939918052","1","yes","1024"
"0","0","0.03079999987676274","0.03079999987676274","white","yes","psycho","psycho","psycho","0","uniform","0","undefined","0","n","1","0","1","0","0","0","0","0","0","NA","1","0","1","1","0","1","0","1","1","Tue Dec  5 18:44:23 2023","A template containing a practice and an experimental phase","yes","TalkFile_언어학과심리실험_B조_기말과제용심리실험.osexp.osexp","C:\Users\rober\OneDrive\Documents\Downloads","no","mono","no","18","no","black","no","yes","768","psycho","1","1","0","C:/Users/rober/OneDrive/바탕 화면/subject-5.csv","psycho","Lentiform Loewenfeld","3.3.14","yes","풍차","artifactual","no-correlation","0","None","NA","NA","NA","a","None","n","0.03329999981360743","NA","NA","NA","9012.323799999649","0.03329999981360743","737.3324000000139","2","psycho","1024","2","48000","-16","experiment","5","odd","흙","natural","NA","26618.067400000655","24046.430400000645","24046.188000000257","NA","NA","15015.080600000147","NA","NA","25903.654000000643","15030.971900000623","27462.052000000767","27462.29889999995","24045.29679999996","26111.926999999923","NA","26723.850300000777","25895.07870000034","Extended template","0","0.06159999975352548","2","yes","1024"
"0","0","0.03173333334416384","0.03173333334416384","white","yes","psycho","psycho","psycho","0","uniform","0","undefined","0","a","1","0","2","0","0","0","0","0","0","NA","2","0","2","2","0","2","0","2","2","Tue Dec  5 18:44:23 2023","A template containing a practice and an experimental phase","yes","TalkFile_언어학과심리실험_B조_기말과제용심리실험.osexp.osexp","C:\Users\rober\OneDrive\Documents\Downloads","no","mono","no","18","no","black","no","yes","768","psycho","2","2","0","C:/Users/rober/OneDrive/바탕 화면/subject-5.csv","psycho","Lentiform Loewenfeld","3.3.14","yes","소나무","natural","same phoneme","0","None","NA","NA","NA","a","None","a","0.033600000278966036","NA","NA","NA","9012.323799999649","0.033600000278966036","730.9302999992724","2","psycho","1024","2","48000","-16","experiment","5","odd","소방서","artifactual","NA","28326.206400000046","24046.430400000645","24046.188000000257","NA","NA","15015.080600000147","NA","NA","27613.11680000017","15030.971900000623","29163.5696000003","29163.785000000644","24045.29679999996","27821.240600000237","NA","28431.670700000723","27603.806400000394","Extended template","0","0.09520000003249152","3","yes","1024"
"0","0","0.026699999580159783","0.026699999580159783","white","yes","psycho","psycho","psycho","0","uniform","0","undefined","0","n","1","0","3","1","1","0","0","0","0","NA","3","0","3","3","0","3","1","3","3","Tue Dec  5 18:44:23 2023","A template containing a practice and an experimental phase","yes","TalkFile_언어학과심리실험_B조_기말과제용심리실험.osexp.osexp","C:\Users\rober\OneDrive\Documents\Downloads","no","mono","no","18","no","black","no","yes","768","psycho","0","0","0","C:/Users/rober/OneDrive/바탕 화면/subject-5.csv","psycho","Lentiform Loewenfeld","3.3.14","no","언덕","natural","no-correlation","0","None","NA","a","NA","a","None","n","0.026699999580159783","NA","782.2125000002416","NA","9012.323799999649","0.026699999580159783","756.9609000001947","2","psycho","1024","2","48000","-16","experiment","5","odd","고양이","natural","NA","30869.074700000056","30061.86020000041","30061.763900000187","NA","29277.70000000055","15015.080600000147","30060.935900000004","NA","30155.25510000043","15030.971900000623","31732.813700000406","31733.02590000003","24045.29679999996","30363.6219","NA","30974.980200000573","30145.82110000083","Extended template","0","0.026699999580159783","1","yes","1024"
"0","0","0.029149999591027154","0.029149999591027154","white","yes","psycho","psycho","psycho","0","uniform","0","undefined","0","a","1","0","4","1","1","0","0","0","0","NA","4","0","4","4","0","4","1","4","4","Tue Dec  5 18:44:23 2023","A template containing a practice and an experimental phase","yes","TalkFile_언어학과심리실험_B조_기말과제용심리실험.osexp.osexp","C:\Users\rober\OneDrive\Documents\Downloads","no","mono","no","18","no","black","no","yes","768","psycho","1","1","0","C:/Users/rober/OneDrive/바탕 화면/subject-5.csv","psycho","Lentiform Loewenfeld","3.3.14","no","시","artifactual","similar-environmental","0","None","NA","a","NA","a","None","a","0.031599999601894524","NA","782.2125000002416","NA","9012.323799999649","0.031599999601894524","718.6295000001337","2","psycho","1024","2","48000","-16","experiment","5","odd","소설","artifactual","NA","32587.686500000018","30061.86020000041","30061.763900000187","NA","29277.70000000055","15015.080600000147","30060.935900000004","NA","31874.619600000187","15030.971900000623","33413.16470000038","33413.391400000364","24045.29679999996","32082.84090000052","NA","32693.67180000063","31866.080200000397","Extended template","0","0.05829999918205431","2","yes","1024"
"0","0","0.028833333090005908","0.028833333090005908","white","yes","psycho","psycho","psycho","0","uniform","0","undefined","0","n","0","0","5","1","1","0","0","0","0","NA","5","0","5","5","0","5","1","5","5","Tue Dec  5 18:44:23 2023","A template containing a practice and an experimental phase","yes","TalkFile_언어학과심리실험_B조_기말과제용심리실험.osexp.osexp","C:\Users\rober\OneDrive\Documents\Downloads","no","mono","no","18","no","black","no","yes","768","psycho","2","2","0","C:/Users/rober/OneDrive/바탕 화면/subject-5.csv","psycho","Lentiform Loewenfeld","3.3.14","no","달","artifactual","same phoneme","0","None","NA","a","NA","a","None","a","0.028200000087963417","NA","782.2125000002416","NA","9012.323799999649","0.028200000087963417","567.7663999995275","2","psycho","1024","2","48000","-16","experiment","5","odd","달력","natural","NA","34321.214800000234","30061.86020000041","30061.763900000187","NA","29277.70000000055","15015.080600000147","30060.935900000004","NA","33608.0292000006","15030.971900000623","34996.41960000008","34996.655400000236","24045.29679999996","33815.852700000505","NA","34427.82250000073","33597.50080000049","Extended template","0","0.08649999927001772","3","yes","1024"
"0","0","0.02914999981840083","0.02914999981840083","white","yes","psycho","psycho","psycho","0","uniform","0","undefined","0","n","0","0","6","1","1","0","0","0","0","NA","6","0","6","6","0","6","1","6","6","Tue Dec  5 18:44:23 2023","A template containing a practice and an experimental phase","yes","TalkFile_언어학과심리실험_B조_기말과제용심리실험.osexp.osexp","C:\Users\rober\OneDrive\Documents\Downloads","no","mono","no","18","no","black","no","yes","768","psycho","3","3","0","C:/Users/rober/OneDrive/바탕 화면/subject-5.csv","psycho","Lentiform Loewenfeld","3.3.14","no","수영","artifactual","similar-environmental","0","None","NA","a","NA","a","None","a","0.030100000003585592","NA","782.2125000002416","NA","9012.323799999649","0.030100000003585592","881.796900000154","2","psycho","1024","2","48000","-16","experiment","5","odd","바다","natural","NA","35856.26219999995","30061.86020000041","30061.763900000187","NA","29277.70000000055","15015.080600000147","30060.935900000004","NA","35142.20380000006","15030.971900000623","36844.95390000029","36845.208300000195","24045.29679999996","35349.86620000018","NA","35962.28289999999","35133.507100000315","Extended template","0","0.11659999927360332","4","yes","1024"
"0","0","0.028499999825726263","0.028499999825726263","white","yes","psycho","psycho","psycho","0","uniform","0","undefined","0","a","1","0","7","1","1","0","0","0","0","NA","7","0","7","7","0","7","1","7","7","Tue Dec  5 18:44:23 2023","A template containing a practice and an experimental phase","yes","TalkFile_언어학과심리실험_B조_기말과제용심리실험.osexp.osexp","C:\Users\rober\OneDrive\Documents\Downloads","no","mono","no","18","no","black","no","yes","768","psycho","4","4","0","C:/Users/rober/OneDrive/바탕 화면/subject-5.csv","psycho","Lentiform Loewenfeld","3.3.14","no","안음풍","non-word","non-word","0","None","NA","a","NA","a","None","a","0.025899999855028","NA","782.2125000002416","NA","9012.323799999649","0.025899999855028","768.1557000005341","2","psycho","1024","2","48000","-16","experiment","5","odd","의자","artifactual","NA","37704.05440000013","30061.86020000041","30061.763900000187","NA","29277.70000000055","15015.080600000147","30060.935900000004","NA","36990.47950000022","15030.971900000623","38578.790800000206","38579.03410000017","24045.29679999996","37198.59240000005","NA","37809.82380000023","36981.91490000045","Extended template","0","0.14249999912863132","5","yes","1024"
"0","0","0.028383333149880247","0.028383333149880247","white","yes","psycho","psycho","psycho","0","uniform","0","undefined","0","a","1","0","8","1","1","0","0","0","0","NA","8","0","8","8","0","8","1","8","8","Tue Dec  5 18:44:23 2023","A template containing a practice and an experimental phase","yes","TalkFile_언어학과심리실험_B조_기말과제용심리실험.osexp.osexp","C:\Users\rober\OneDrive\Documents\Downloads","no","mono","no","18","no","black","no","yes","768","psycho","5","5","0","C:/Users/rober/OneDrive/바탕 화면/subject-5.csv","psycho","Lentiform Loewenfeld","3.3.14","no","모자","artifactual","no-correlation","0","None","NA","a","NA","a","None","a","0.027799999770650174","NA","782.2125000002416","NA","9012.323799999649","0.027799999770650174","781.289999999899","2","psycho","1024","2","48000","-16","experiment","5","odd","마우스","artifactual","NA","39437.76580000031","30061.86020000041","30061.763900000187","NA","29277.70000000055","15015.080600000147","30060.935900000004","NA","38724.10590000072","15030.971900000623","40326.539100000446","40326.798100000815","24045.29679999996","38932.0974000002","NA","39544.3920000007","38715.33880000061","Extended template","0","0.1702999988992815","6","yes","1024"
"0","0","0.02841428561493688","0.02841428561493688","white","yes","psycho","psycho","psycho","0","uniform","0","undefined","0","a","0","0","9","1","1","0","0","0","0","NA","9","0","9","9","0","9","1","9","9","Tue Dec  5 18:44:23 2023","A template containing a practice and an experimental phase","yes","TalkFile_언어학과심리실험_B조_기말과제용심리실험.osexp.osexp","C:\Users\rober\OneDrive\Documents\Downloads","no","mono","no","18","no","black","no","yes","768","psycho","6","6","0","C:/Users/rober/OneDrive/바탕 화면/subject-5.csv","psycho","Lentiform Loewenfeld","3.3.14","no","바다","natural","similar-environmental","0","None","NA","a","NA","a","None","n","0.02860000040527666","NA","782.2125000002416","NA","9012.323799999649","0.02860000040527666","1686.8603000002622","2","psycho","1024","2","48000","-16","experiment","5","odd","배","artifactual","NA","41185.33770000067","30061.86020000041","30061.763900000187","NA","29277.70000000055","15015.080600000147","30060.935900000004","NA","40471.063900000445","15030.971900000623","42979.34170000008","42979.60980000062","24045.29679999996","40679.51340000036","NA","41291.51730000012","40462.79030000005","Extended template","0","0.19889999930455815","7","yes","1024"
"0","0","0.028687499934676453","0.028687499934676453","white","yes","psycho","psycho","psycho","0","uniform","0","undefined","0","a","1","0","10","1","1","0","0","0","0","NA","10","0","10","10","0","10","1","10","10","Tue Dec  5 18:44:23 2023","A template containing a practice and an experimental phase","yes","TalkFile_언어학과심리실험_B조_기말과제용심리실험.osexp.osexp","C:\Users\rober\OneDrive\Documents\Downloads","no","mono","no","18","no","black","no","yes","768","psycho","7","7","0","C:/Users/rober/OneDrive/바탕 화면/subject-5.csv","psycho","Lentiform Loewenfeld","3.3.14","no","소나무","natural","same phoneme","0","None","NA","a","NA","a","None","a","0.03060000017285347","NA","782.2125000002416","NA","9012.323799999649","0.03060000017285347","5980.042799999865","2","psycho","1024","2","48000","-16","experiment","5","odd","소방서","artifactual","NA","43848.22710000026","30061.86020000041","30061.763900000187","NA","29277.70000000055","15015.080600000147","30060.935900000004","NA","43133.75840000026","15030.971900000623","49934.83980000019","49935.10420000075","24045.29679999996","43343.7384000008","NA","43953.889000000345","43125.61150000056","Extended template","0","0.22949999947741162","8","yes","1024"
"0","0","0.02927777768491069","0.02927777768491069","white","yes","psycho","psycho","psycho","0","uniform","0","undefined","0","a","1","0","11","1","1","0","0","0","0","NA","11","0","11","11","0","11","1","11","11","Tue Dec  5 18:44:23 2023","A template containing a practice and an experimental phase","yes","TalkFile_언어학과심리실험_B조_기말과제용심리실험.osexp.osexp","C:\Users\rober\OneDrive\Documents\Downloads","no","mono","no","18","no","black","no","yes","768","psycho","8","8","0","C:/Users/rober/OneDrive/바탕 화면/subject-5.csv","psycho","Lentiform Loewenfeld","3.3.14","no","성적표","artifactual","same phoneme","0","None","NA","a","NA","a","None","a","0.03399999968678458","NA","782.2125000002416","NA","9012.323799999649","0.03399999968678458","936.5051999993739","2","psycho","1024","2","48000","-16","experiment","5","odd","성냥","artifactual","NA","50795.75120000027","30061.86020000041","30061.763900000187","NA","29277.70000000055","15015.080600000147","30060.935900000004","NA","50081.35120000043","15030.971900000623","51839.55420000075","51839.8573000004","24045.29679999996","50289.88180000033","NA","50901.82510000068","50073.29600000048","Extended template","0","0.2634999991641962","9","yes","1024"
"0","0","0.029009999980189605","0.029009999980189605","white","yes","psycho","psycho","psycho","0","uniform","0","undefined","0","n","1","0","12","1","1","0","0","0","0","NA","12","0","12","12","0","12","1","12","12","Tue Dec  5 18:44:23 2023","A template containing a practice and an experimental phase","yes","TalkFile_언어학과심리실험_B조_기말과제용심리실험.osexp.osexp","C:\Users\rober\OneDrive\Documents\Downloads","no","mono","no","18","no","black","no","yes","768","psycho","9","9","0","C:/Users/rober/OneDrive/바탕 화면/subject-5.csv","psycho","Lentiform Loewenfeld","3.3.14","no","숲","natural","inclusive","0","None","NA","a","NA","a","None","n","0.02660000063769985","NA","782.2125000002416","NA","9012.323799999649","0.02660000063769985","1084.7340999998778","2","psycho","1024","2","48000","-16","experiment","5","odd","나무","natural","NA","52716.865000000325","30061.86020000041","30061.763900000187","NA","29277.70000000055","15015.080600000147","30060.935900000004","NA","51998.6028000003","15030.971900000623","53908.509400000185","53908.79440000026","24045.29679999996","52210.792500000025","NA","52822.94870000078","51989.590500000304","Extended template","0","0.29009999980189605","10","yes","1024"
"0","0","0.028836363609033553","0.028836363609033553","white","yes","psycho","psycho","psycho","0","uniform","0","undefined","0","a","0","0","13","1","1","0","0","0","0","NA","13","0","13","13","0","13","1","13","13","Tue Dec  5 18:44:23 2023","A template containing a practice and an experimental phase","yes","TalkFile_언어학과심리실험_B조_기말과제용심리실험.osexp.osexp","C:\Users\rober\OneDrive\Documents\Downloads","no","mono","no","18","no","black","no","yes","768","psycho","10","10","0","C:/Users/rober/OneDrive/바탕 화면/subject-5.csv","psycho","Lentiform Loewenfeld","3.3.14","no","바다","natural","same phoneme","0","None","NA","a","NA","a","None","n","0.027099999897473026","NA","782.2125000002416","NA","9012.323799999649","0.027099999897473026","957.6225999999224","2","psycho","1024","2","48000","-16","experiment","5","odd","바닥","artifactual","NA","54768.378000000666","30061.86020000041","30061.763900000187","NA","29277.70000000055","15015.080600000147","30060.935900000004","NA","54055.0546000004","15030.971900000623","55832.52370000082","55832.818200000474","24045.29679999996","54262.82530000026","NA","54874.0198000005","54046.648300000015","Extended template","0","0.3171999996993691","11","yes","1024"
"0","0","0.028699999954066396","0.028699999954066396","white","yes","psycho","psycho","psycho","0","uniform","0","undefined","0","a","1","0","14","1","1","0","0","0","0","NA","14","0","14","14","0","14","1","14","14","Tue Dec  5 18:44:23 2023","A template containing a practice and an experimental phase","yes","TalkFile_언어학과심리실험_B조_기말과제용심리실험.osexp.osexp","C:\Users\rober\OneDrive\Documents\Downloads","no","mono","no","18","no","black","no","yes","768","psycho","11","11","0","C:/Users/rober/OneDrive/바탕 화면/subject-5.csv","psycho","Lentiform Loewenfeld","3.3.14","no","산","natural","similar-environmental","0","None","NA","a","NA","a","None","a","0.02719999974942766","NA","782.2125000002416","NA","9012.323799999649","0.02719999974942766","1064.5901999996568","2","psycho","1024","2","48000","-16","experiment","5","odd","오두막","artifactual","NA","56687.11130000065","30061.86020000041","30061.763900000187","NA","29277.70000000055","15015.080600000147","30060.935900000004","NA","55974.17029999997","15030.971900000623","57858.27390000031","57858.56310000054","24045.29679999996","56182.32390000048","NA","56792.82300000068","55966.17080000033","Extended template","0","0.34439999944879673","12","yes","1024"
"0","0","0.028607692281814076","0.028607692281814076","white","yes","psycho","psycho","psycho","0","uniform","0","undefined","0","n","1","0","15","1","1","0","0","0","0","NA","15","0","15","15","0","15","1","15","15","Tue Dec  5 18:44:23 2023","A template containing a practice and an experimental phase","yes","TalkFile_언어학과심리실험_B조_기말과제용심리실험.osexp.osexp","C:\Users\rober\OneDrive\Documents\Downloads","no","mono","no","18","no","black","no","yes","768","psycho","12","12","0","C:/Users/rober/OneDrive/바탕 화면/subject-5.csv","psycho","Lentiform Loewenfeld","3.3.14","no","구두","artifactual","same phoneme","0","None","NA","a","NA","a","None","n","0.02750000021478627","NA","782.2125000002416","NA","9012.323799999649","0.02750000021478627","1123.6690000005183","2","psycho","1024","2","48000","-16","experiment","5","odd","구름","natural","NA","58714.52880000015","30061.86020000041","30061.763900000187","NA","29277.70000000055","15015.080600000147","30060.935900000004","NA","58001.22620000002","15030.971900000623","59945.511500000066","59945.823300000484","24045.29679999996","58208.9433000001","NA","58820.95019999997","57992.72550000023","Extended template","0","0.371899999663583","13","yes","1024"
"0","0","0.02984999998391556","0.02984999998391556","white","yes","psycho","psycho","psycho","0","uniform","0","undefined","0","a","1","0","16","1","1","0","0","0","0","NA","16","0","16","16","0","16","1","16","16","Tue Dec  5 18:44:23 2023","A template containing a practice and an experimental phase","yes","TalkFile_언어학과심리실험_B조_기말과제용심리실험.osexp.osexp","C:\Users\rober\OneDrive\Documents\Downloads","no","mono","no","18","no","black","no","yes","768","psycho","13","13","0","C:/Users/rober/OneDrive/바탕 화면/subject-5.csv","psycho","Lentiform Loewenfeld","3.3.14","no","도미노","artifactual","same phoneme","0","None","NA","a","NA","a","None","a","0.04600000011123484","NA","782.2125000002416","NA","9012.323799999649","0.04600000011123484","991.0625000002256","2","psycho","1024","2","48000","-16","experiment","5","odd","도서","artifactual","NA","60802.95190000015","30061.86020000041","30061.763900000187","NA","29277.70000000055","15015.080600000147","30060.935900000004","NA","60089.79450000061","15030.971900000623","61900.75539999998","61901.08390000023","24045.29679999996","60297.980300000745","NA","60908.76250000019","60080.793000000085","Extended template","0","0.41789999977481784","14","yes","1024"
"0","0","0.029613333329810605","0.029613333329810605","white","yes","psycho","psycho","psycho","0","uniform","0","undefined","0","n","1","0","17","1","1","0","0","0","0","NA","17","0","17","17","0","17","1","17","17","Tue Dec  5 18:44:23 2023","A template containing a practice and an experimental phase","yes","TalkFile_언어학과심리실험_B조_기말과제용심리실험.osexp.osexp","C:\Users\rober\OneDrive\Documents\Downloads","no","mono","no","18","no","black","no","yes","768","psycho","14","14","0","C:/Users/rober/OneDrive/바탕 화면/subject-5.csv","psycho","Lentiform Loewenfeld","3.3.14","no","태양","natural","same phoneme","0","None","NA","a","NA","a","None","n","0.026300000172341242","NA","782.2125000002416","NA","9012.323799999649","0.026300000172341242","679.4929999996384","2","psycho","1024","2","48000","-16","experiment","5","odd","태풍","natural","NA","62758.500100000674","30061.86020000041","30061.763900000187","NA","29277.70000000055","15015.080600000147","30060.935900000004","NA","62044.73460000008","15030.971900000623","63544.59080000015","63544.91990000042","24045.29679999996","62253.067500000725","NA","62864.2219000003","62036.92080000019","Extended template","0","0.4441999999471591","15","yes","1024"
"0","0","0.02953124999294232","0.02953124999294232","white","yes","psycho","psycho","psycho","0","uniform","0","undefined","0","n","1","0","18","1","1","0","0","0","0","NA","18","0","18","18","0","18","1","18","18","Tue Dec  5 18:44:23 2023","A template containing a practice and an experimental phase","yes","TalkFile_언어학과심리실험_B조_기말과제용심리실험.osexp.osexp","C:\Users\rober\OneDrive\Documents\Downloads","no","mono","no","18","no","black","no","yes","768","psycho","15","15","0","C:/Users/rober/OneDrive/바탕 화면/subject-5.csv","psycho","Lentiform Loewenfeld","3.3.14","no","악어","natural","similar-environmental","0","None","NA","a","NA","a","None","n","0.028299999939918052","NA","782.2125000002416","NA","9012.323799999649","0.028299999939918052","718.1061000001137","2","psycho","1024","2","48000","-16","experiment","5","odd","늪","natural","NA","64429.34510000032","30061.86020000041","30061.763900000187","NA","29277.70000000055","15015.080600000147","30060.935900000004","NA","63716.11770000072","15030.971900000623","65254.27570000011","65254.710900000646","24045.29679999996","63924.07820000062","NA","64535.25300000001","63707.06220000011","Extended template","0","0.47249999988707714","16","yes","1024"
"0","0","0.03062941178744522","0.03062941178744522","white","yes","psycho","psycho","psycho","0","uniform","0","undefined","0","n","1","0","19","1","1","0","0","0","0","NA","19","0","19","19","0","19","1","19","19","Tue Dec  5 18:44:23 2023","A template containing a practice and an experimental phase","yes","TalkFile_언어학과심리실험_B조_기말과제용심리실험.osexp.osexp","C:\Users\rober\OneDrive\Documents\Downloads","no","mono","no","18","no","black","no","yes","768","psycho","16","16","0","C:/Users/rober/OneDrive/바탕 화면/subject-5.csv","psycho","Lentiform Loewenfeld","3.3.14","no","의자","artifactual","no-correlation","0","None","NA","a","NA","a","None","n","0.04820000049949158","NA","782.2125000002416","NA","9012.323799999649","0.04820000049949158","524.743700000734","2","psycho","1024","2","48000","-16","experiment","5","odd","행성","natural","NA","66116.28780000046","30061.86020000041","30061.763900000187","NA","29277.70000000055","15015.080600000147","30060.935900000004","NA","65401.465500000086","15030.971900000623","66747.78530000003","66748.14620000051","24045.29679999996","65609.03980000058","NA","66222.09810000003","65391.566799999964","Extended template","0","0.5207000003865687","17","yes","1024"
"0","0","0.03079444448101438","0.03079444448101438","white","yes","psycho","psycho","psycho","0","uniform","0","undefined","0","n","1","0","20","1","1","0","0","0","0","NA","20","0","20","20","0","20","1","20","20","Tue Dec  5 18:44:23 2023","A template containing a practice and an experimental phase","yes","TalkFile_언어학과심리실험_B조_기말과제용심리실험.osexp.osexp","C:\Users\rober\OneDrive\Documents\Downloads","no","mono","no","18","no","black","no","yes","768","psycho","17","17","0","C:/Users/rober/OneDrive/바탕 화면/subject-5.csv","psycho","Lentiform Loewenfeld","3.3.14","no","호랑이","natural","same phoneme","0","None","NA","a","NA","a","None","n","0.03360000027169008","NA","782.2125000002416","NA","9012.323799999649","0.03360000027169008","644.3298000003706","2","psycho","1024","2","48000","-16","experiment","5","odd","호수","natural","NA","67640.42420000078","30061.86020000041","30061.763900000187","NA","29277.70000000055","15015.080600000147","30060.935900000004","NA","66925.55400000038","15030.971900000623","68395.07649999997","68395.76440000019","24045.29679999996","67135.08570000067","NA","67749.56600000041","66917.78320000049","Extended template","0","0.5543000006582588","18","yes","1024"
"0","0","0.03058421053068933","0.03058421053068933","white","yes","psycho","psycho","psycho","0","uniform","0","undefined","0","a","1","0","21","1","1","0","0","0","0","NA","21","0","21","21","0","21","1","21","21","Tue Dec  5 18:44:23 2023","A template containing a practice and an experimental phase","yes","TalkFile_언어학과심리실험_B조_기말과제용심리실험.osexp.osexp","C:\Users\rober\OneDrive\Documents\Downloads","no","mono","no","18","no","black","no","yes","768","psycho","18","18","0","C:/Users/rober/OneDrive/바탕 화면/subject-5.csv","psycho","Lentiform Loewenfeld","3.3.14","no","국가","artifactual","inclusive","0","None","NA","a","NA","a","None","a","0.02679999942483846","NA","782.2125000002416","NA","9012.323799999649","0.02679999942483846","673.9799999995739","2","psycho","1024","2","48000","-16","experiment","5","odd","대한민국","artifactual","NA","69256.7592000005","30061.86020000041","30061.763900000187","NA","29277.70000000055","15015.080600000147","30060.935900000004","NA","68542.96560000058","15030.971900000623","70037.93100000075","70038.31870000067","24045.29679999996","68751.41910000003","NA","69363.04290000044","68534.46750000058","Extended template","0","0.5811000000830973","19","yes","1024"
"0","0","0.030455000024085167","0.030455000024085167","white","yes","psycho","psycho","psycho","0","uniform","0","undefined","0","n","1","0","22","1","1","0","0","0","0","NA","22","0","22","22","0","22","1","22","22","Tue Dec  5 18:44:23 2023","A template containing a practice and an experimental phase","yes","TalkFile_언어학과심리실험_B조_기말과제용심리실험.osexp.osexp","C:\Users\rober\OneDrive\Documents\Downloads","no","mono","no","18","no","black","no","yes","768","psycho","19","19","0","C:/Users/rober/OneDrive/바탕 화면/subject-5.csv","psycho","Lentiform Loewenfeld","3.3.14","no","산","natural","similar-environmental","0","None","NA","a","NA","a","None","n","0.028000000398606062","NA","782.2125000002416","NA","9012.323799999649","0.028000000398606062","605.5475000002771","2","psycho","1024","2","48000","-16","experiment","5","odd","계곡","natural","NA","70896.43690000048","30061.86020000041","30061.763900000187","NA","29277.70000000055","15015.080600000147","30060.935900000004","NA","70183.39660000039","15030.971900000623","71610.96300000008","71611.32100000032","24045.29679999996","70391.5237000001","NA","71004.25610000003","70172.26280000068","Extended template","0","0.6091000004817033","20","yes","1024"
"0","0","0.030276190522792085","0.030276190522792085","white","yes","psycho","psycho","psycho","0","uniform","0","undefined","0","n","1","0","23","1","1","0","0","0","0","NA","23","0","23","23","0","23","1","23","23","Tue Dec  5 18:44:23 2023","A template containing a practice and an experimental phase","yes","TalkFile_언어학과심리실험_B조_기말과제용심리실험.osexp.osexp","C:\Users\rober\OneDrive\Documents\Downloads","no","mono","no","18","no","black","no","yes","768","psycho","20","20","0","C:/Users/rober/OneDrive/바탕 화면/subject-5.csv","psycho","Lentiform Loewenfeld","3.3.14","no","상새고","non-word","non-word","0","None","NA","a","NA","a","None","n","0.026700000496930443","NA","782.2125000002416","NA","9012.323799999649","0.026700000496930443","557.627900000618","2","psycho","1024","2","48000","-16","experiment","5","odd","나뭇잎","natural","NA","72470.90079999997","30061.86020000041","30061.763900000187","NA","29277.70000000055","15015.080600000147","30060.935900000004","NA","71755.93420000041","15030.971900000623","73135.3011000001","73135.66040000023","24045.29679999996","71965.05820000038","NA","72576.76600000013","71747.78750000041","Extended template","0","0.6358000009786338","21","yes","1024"
"0","0","0.0306318182252157","0.0306318182252157","white","yes","psycho","psycho","psycho","0","uniform","0","undefined","0","n","1","0","24","1","1","0","0","0","0","NA","24","0","24","24","0","24","1","24","24","Tue Dec  5 18:44:23 2023","A template containing a practice and an experimental phase","yes","TalkFile_언어학과심리실험_B조_기말과제용심리실험.osexp.osexp","C:\Users\rober\OneDrive\Documents\Downloads","no","mono","no","18","no","black","no","yes","768","psycho","21","21","0","C:/Users/rober/OneDrive/바탕 화면/subject-5.csv","psycho","Lentiform Loewenfeld","3.3.14","no","풍차","artifactual","no-correlation","0","None","NA","a","NA","a","None","n","0.038099999976111576","NA","782.2125000002416","NA","9012.323799999649","0.038099999976111576","509.9130999997142","2","psycho","1024","2","48000","-16","experiment","5","odd","흙","natural","NA","73989.33220000072","30061.86020000041","30061.763900000187","NA","29277.70000000055","15015.080600000147","30060.935900000004","NA","73276.24790000028","15030.971900000623","74608.42630000025","74609.04050000044","24045.29679999996","73484.18250000032","NA","74097.49400000056","73267.41820000007","Extended template","0","0.6739000009547453","22","yes","1024"
"0","0","0.031152173980523872","0.031152173980523872","white","yes","psycho","psycho","psycho","0","uniform","0","undefined","0","n","1","0","25","1","1","0","0","0","0","NA","25","0","25","25","0","25","1","25","25","Tue Dec  5 18:44:23 2023","A template containing a practice and an experimental phase","yes","TalkFile_언어학과심리실험_B조_기말과제용심리실험.osexp.osexp","C:\Users\rober\OneDrive\Documents\Downloads","no","mono","no","18","no","black","no","yes","768","psycho","22","22","0","C:/Users/rober/OneDrive/바탕 화면/subject-5.csv","psycho","Lentiform Loewenfeld","3.3.14","no","패딩","artifactual","similar-environmental","0","None","NA","a","NA","a","None","n","0.04260000059730373","NA","782.2125000002416","NA","9012.323799999649","0.04260000059730373","1452.8861999997462","2","psycho","1024","2","48000","-16","experiment","5","odd","겨울","natural","NA","75488.58010000004","30061.86020000041","30061.763900000187","NA","29277.70000000055","15015.080600000147","30060.935900000004","NA","74773.79230000042","15030.971900000623","77048.46290000023","77048.85840000043","24045.29679999996","74982.71760000079","NA","75594.65870000076","74765.84150000053","Extended template","0","0.7165000015520491","23","yes","1024"
"0","0","0.031137500059533824","0.031137500059533824","white","yes","psycho","psycho","psycho","0","uniform","0","undefined","0","a","1","0","26","1","1","0","0","0","0","NA","26","0","26","26","0","26","1","26","26","Tue Dec  5 18:44:23 2023","A template containing a practice and an experimental phase","yes","TalkFile_언어학과심리실험_B조_기말과제용심리실험.osexp.osexp","C:\Users\rober\OneDrive\Documents\Downloads","no","mono","no","18","no","black","no","yes","768","psycho","23","23","0","C:/Users/rober/OneDrive/바탕 화면/subject-5.csv","psycho","Lentiform Loewenfeld","3.3.14","no","구름","natural","same phoneme","0","None","NA","a","NA","a","None","a","0.03079999987676274","NA","782.2125000002416","NA","9012.323799999649","0.03079999987676274","735.0049999995535","2","psycho","1024","2","48000","-16","experiment","5","odd","구두","artifactual","NA","77907.97850000035","30061.86020000041","30061.763900000187","NA","29277.70000000055","15015.080600000147","30060.935900000004","NA","77190.44990000021","15030.971900000623","78749.47620000057","78749.92400000064","24045.29679999996","77402.7943000001","NA","78013.43520000046","77181.88929999997","Extended template","0","0.7473000014288118","24","yes","1024"
"0","0","0.03107600005052518","0.03107600005052518","white","yes","psycho","psycho","psycho","0","uniform","0","undefined","0","n","1","0","27","1","1","0","0","0","0","NA","27","0","27","27","0","27","1","27","27","Tue Dec  5 18:44:23 2023","A template containing a practice and an experimental phase","yes","TalkFile_언어학과심리실험_B조_기말과제용심리실험.osexp.osexp","C:\Users\rober\OneDrive\Documents\Downloads","no","mono","no","18","no","black","no","yes","768","psycho","24","24","0","C:/Users/rober/OneDrive/바탕 화면/subject-5.csv","psycho","Lentiform Loewenfeld","3.3.14","no","다리","artifactual","similar-environmental","0","None","NA","a","NA","a","None","n","0.029599999834317714","NA","782.2125000002416","NA","9012.323799999649","0.029599999834317714","5405.888199999943","2","psycho","1024","2","48000","-16","experiment","5","odd","강","natural","NA","79606.4077000001","30061.86020000041","30061.763900000187","NA","29277.70000000055","15015.080600000147","30060.935900000004","NA","78891.89080000052","15030.971900000623","85120.2701000002","85120.67389999994","24045.29679999996","79101.03980000076","NA","79713.28410000024","78883.51039999997","Extended template","0","0.7769000012631295","25","yes","1024"
"0","0","0.031019230811440278","0.031019230811440278","white","yes","psycho","psycho","psycho","0","uniform","0","undefined","0","x","1","0","28","1","1","0","0","0","0","NA","28","0","28","28","0","28","1","28","28","Tue Dec  5 18:44:23 2023","A template containing a practice and an experimental phase","yes","TalkFile_언어학과심리실험_B조_기말과제용심리실험.osexp.osexp","C:\Users\rober\OneDrive\Documents\Downloads","no","mono","no","18","no","black","no","yes","768","psycho","25","25","0","C:/Users/rober/OneDrive/바탕 화면/subject-5.csv","psycho","Lentiform Loewenfeld","3.3.14","no","벨트","artifactual","non-word","0","None","NA","a","NA","a","None","x","0.029599999834317714","NA","782.2125000002416","NA","9012.323799999649","0.029599999834317714","27880.51799999994","2","psycho","1024","2","48000","-16","experiment","5","odd","진웬","non-word","NA","85989.78370000077","30061.86020000041","30061.763900000187","NA","29277.70000000055","15015.080600000147","30060.935900000004","NA","85276.14620000077","15030.971900000623","113977.36470000018","113977.78070000003","24045.29679999996","85484.36149999997","NA","86095.73590000036","85267.12610000049","Extended template","0","0.8065000010974472","26","yes","1024"
"0","0","0.030974074131033074","0.030974074131033074","white","yes","psycho","psycho","psycho","0","uniform","0","undefined","0","a","1","0","29","1","1","0","0","0","0","NA","29","0","29","29","0","29","1","29","29","Tue Dec  5 18:44:23 2023","A template containing a practice and an experimental phase","yes","TalkFile_언어학과심리실험_B조_기말과제용심리실험.osexp.osexp","C:\Users\rober\OneDrive\Documents\Downloads","no","mono","no","18","no","black","no","yes","768","psycho","26","26","0","C:/Users/rober/OneDrive/바탕 화면/subject-5.csv","psycho","Lentiform Loewenfeld","3.3.14","no","선설수","non-word","non-word","0","None","NA","a","NA","a","None","a","0.02980000044044573","NA","782.2125000002416","NA","9012.323799999649","0.02980000044044573","882.8514000006253","2","psycho","1024","2","48000","-16","experiment","5","odd","시계","artifactual","NA","114836.69450000071","30061.86020000041","30061.763900000187","NA","29277.70000000055","15015.080600000147","30060.935900000004","NA","114123.51160000071","15030.971900000623","115826.28250000016","115826.73020000038","24045.29679999996","114331.72520000063","NA","114942.35939999999","114115.61810000057","Extended template","0","0.836300001537893","27","yes","1024"
"0","0","0.03081428576479084","0.03081428576479084","white","yes","psycho","psycho","psycho","0","uniform","0","undefined","0","n","1","0","30","1","1","0","0","0","0","NA","30","0","30","30","0","30","1","30","30","Tue Dec  5 18:44:23 2023","A template containing a practice and an experimental phase","yes","TalkFile_언어학과심리실험_B조_기말과제용심리실험.osexp.osexp","C:\Users\rober\OneDrive\Documents\Downloads","no","mono","no","18","no","black","no","yes","768","psycho","27","27","0","C:/Users/rober/OneDrive/바탕 화면/subject-5.csv","psycho","Lentiform Loewenfeld","3.3.14","no","동굴","natural","similar-environmental","0","None","NA","a","NA","a","None","n","0.026499999876250513","NA","782.2125000002416","NA","9012.323799999649","0.026499999876250513","1199.906199999532","2","psycho","1024","2","48000","-16","experiment","5","odd","박쥐","natural","NA","116680.55470000036","30061.86020000041","30061.763900000187","NA","29277.70000000055","15015.080600000147","30060.935900000004","NA","115966.89890000016","15030.971900000623","117987.49660000067","117987.9303000007","24045.29679999996","116175.25650000061","NA","116786.62130000067","115957.85210000031","Extended template","0","0.8628000014141435","28","yes","1024"
"0","0","0.030686206942030773","0.030686206942030773","white","yes","psycho","psycho","psycho","0","uniform","0","undefined","0","n","1","0","31","1","1","0","0","0","0","NA","31","0","31","31","0","31","1","31","31","Tue Dec  5 18:44:23 2023","A template containing a practice and an experimental phase","yes","TalkFile_언어학과심리실험_B조_기말과제용심리실험.osexp.osexp","C:\Users\rober\OneDrive\Documents\Downloads","no","mono","no","18","no","black","no","yes","768","psycho","28","28","0","C:/Users/rober/OneDrive/바탕 화면/subject-5.csv","psycho","Lentiform Loewenfeld","3.3.14","no","물고기","natural","inclusive","0","None","NA","a","NA","a","None","n","0.027099999904748984","NA","782.2125000002416","NA","9012.323799999649","0.027099999904748984","645.743899999623","2","psycho","1024","2","48000","-16","experiment","5","odd","연어","natural","NA","118844.48060000068","30061.86020000041","30061.763900000187","NA","29277.70000000055","15015.080600000147","30060.935900000004","NA","118131.3050000008","15030.971900000623","119596.80580000076","119597.24929999994","24045.29679999996","118339.33310000066","NA","118950.05430000037","118123.12670000028","Extended template","0","0.8899000013188925","29","yes","1024"
"0","0","0.030573333363766626","0.030573333363766626","white","yes","psycho","psycho","psycho","0","uniform","0","undefined","0","n","1","0","32","1","1","0","0","0","0","NA","32","0","32","32","0","32","1","32","32","Tue Dec  5 18:44:23 2023","A template containing a practice and an experimental phase","yes","TalkFile_언어학과심리실험_B조_기말과제용심리실험.osexp.osexp","C:\Users\rober\OneDrive\Documents\Downloads","no","mono","no","18","no","black","no","yes","768","psycho","29","29","0","C:/Users/rober/OneDrive/바탕 화면/subject-5.csv","psycho","Lentiform Loewenfeld","3.3.14","no","장슈","non-word","non-word","0","None","NA","a","NA","a","None","n","0.02729999959410634","NA","782.2125000002416","NA","9012.323799999649","0.02729999959410634","1816.4167999993952","2","psycho","1024","2","48000","-16","experiment","5","odd","다람쥐","natural","NA","120462.2186000006","30061.86020000041","30061.763900000187","NA","29277.70000000055","15015.080600000147","30060.935900000004","NA","119745.31230000049","15030.971900000623","122385.50170000053","122385.9553000002","24045.29679999996","119952.85880000028","NA","120567.97630000074","119736.57360000015","Extended template","0","0.9172000009129988","30","yes","1024"
"0","0","0.031051612935581004","0.031051612935581004","white","yes","psycho","psycho","psycho","0","uniform","0","undefined","0","a","1","0","33","1","1","0","0","0","0","NA","33","0","33","33","0","33","1","33","33","Tue Dec  5 18:44:23 2023","A template containing a practice and an experimental phase","yes","TalkFile_언어학과심리실험_B조_기말과제용심리실험.osexp.osexp","C:\Users\rober\OneDrive\Documents\Downloads","no","mono","no","18","no","black","no","yes","768","psycho","30","30","0","C:/Users/rober/OneDrive/바탕 화면/subject-5.csv","psycho","Lentiform Loewenfeld","3.3.14","no","계곡","natural","no-correlation","0","None","NA","a","NA","a","None","a","0.04540000009001233","NA","782.2125000002416","NA","9012.323799999649","0.04540000009001233","645.1897000006284","2","psycho","1024","2","48000","-16","experiment","5","odd","화장실","artifactual","NA","123240.91810000027","30061.86020000041","30061.763900000187","NA","29277.70000000055","15015.080600000147","30060.935900000004","NA","122528.02109999993","15030.971900000623","123994.07190000056","123994.76920000052","24045.29679999996","122735.79500000051","NA","123347.20060000019","122518.95110000078","Extended template","0","0.9626000010030111","31","yes","1024"
"0","0","0.030921875008971256","0.030921875008971256","white","yes","psycho","psycho","psycho","0","uniform","0","undefined","0","a","1","0","34","1","1","0","0","0","0","NA","34","0","34","34","0","34","1","34","34","Tue Dec  5 18:44:23 2023","A template containing a practice and an experimental phase","yes","TalkFile_언어학과심리실험_B조_기말과제용심리실험.osexp.osexp","C:\Users\rober\OneDrive\Documents\Downloads","no","mono","no","18","no","black","no","yes","768","psycho","31","31","0","C:/Users/rober/OneDrive/바탕 화면/subject-5.csv","psycho","Lentiform Loewenfeld","3.3.14","no","기계","artifactual","inclusive","0","None","NA","a","NA","a","None","a","0.026899999284069054","NA","782.2125000002416","NA","9012.323799999649","0.026899999284069054","1111.1001999997825","2","psycho","1024","2","48000","-16","experiment","5","odd","컴퓨터","artifactual","NA","124877.15320000006","30061.86020000041","30061.763900000187","NA","29277.70000000055","15015.080600000147","30060.935900000004","NA","124162.5507000008","15030.971900000623","126095.05870000066","126095.51200000077","24045.29679999996","124370.45910000052","NA","124982.72910000014","124152.98690000054","Extended template","0","0.9895000002870802","32","yes","1024"
"0","0","0.030854545471039743","0.030854545471039743","white","yes","psycho","psycho","psycho","0","uniform","0","undefined","0","n","1","0","35","1","1","0","0","0","0","NA","35","0","35","35","0","35","1","35","35","Tue Dec  5 18:44:23 2023","A template containing a practice and an experimental phase","yes","TalkFile_언어학과심리실험_B조_기말과제용심리실험.osexp.osexp","C:\Users\rober\OneDrive\Documents\Downloads","no","mono","no","18","no","black","no","yes","768","psycho","32","32","0","C:/Users/rober/OneDrive/바탕 화면/subject-5.csv","psycho","Lentiform Loewenfeld","3.3.14","no","새","natural","inclusive","0","None","NA","a","NA","a","None","n","0.028700000257231295","NA","782.2125000002416","NA","9012.323799999649","0.028700000257231295","2558.4460999998555","2","psycho","1024","2","48000","-16","experiment","5","odd","까치","natural","NA","126948.93130000037","30061.86020000041","30061.763900000187","NA","29277.70000000055","15015.080600000147","30060.935900000004","NA","126235.47190000044","15030.971900000623","129614.24650000027","129614.72080000021","24045.29679999996","126443.52170000001","NA","127054.6299000007","126227.52949999995","Extended template","0","1.0182000005443115","33","yes","1024"
"0","0","0.030802941182628274","0.030802941182628274","white","yes","psycho","psycho","psycho","0","uniform","0","undefined","0","a","1","0","36","1","1","0","0","0","0","NA","36","0","36","36","0","36","1","36","36","Tue Dec  5 18:44:23 2023","A template containing a practice and an experimental phase","yes","TalkFile_언어학과심리실험_B조_기말과제용심리실험.osexp.osexp","C:\Users\rober\OneDrive\Documents\Downloads","no","mono","no","18","no","black","no","yes","768","psycho","33","33","0","C:/Users/rober/OneDrive/바탕 화면/subject-5.csv","psycho","Lentiform Loewenfeld","3.3.14","no","카메라","artifactual","inclusive","0","None","NA","a","NA","a","None","a","0.029099999665049836","NA","782.2125000002416","NA","9012.323799999649","0.029099999665049836","978.0411000001477","2","psycho","1024","2","48000","-16","experiment","5","odd","렌즈","artifactual","NA","130479.49190000055","30061.86020000041","30061.763900000187","NA","29277.70000000055","15015.080600000147","30060.935900000004","NA","129765.65410000057","15030.971900000623","131564.13200000042","131564.61730000045","24045.29679999996","129973.5210000008","NA","130584.99590000065","129754.4624000002","Extended template","0","1.0473000002093613","34","yes","1024"
"0","0","0.030934285730056996","0.030934285730056996","white","yes","psycho","psycho","psycho","0","uniform","0","undefined","0","a","1","0","37","1","1","0","0","0","0","NA","37","0","37","37","0","37","1","37","37","Tue Dec  5 18:44:23 2023","A template containing a practice and an experimental phase","yes","TalkFile_언어학과심리실험_B조_기말과제용심리실험.osexp.osexp","C:\Users\rober\OneDrive\Documents\Downloads","no","mono","no","18","no","black","no","yes","768","psycho","34","34","0","C:/Users/rober/OneDrive/바탕 화면/subject-5.csv","psycho","Lentiform Loewenfeld","3.3.14","no","피자","artifactual","similar-environmental","0","None","NA","a","NA","a","None","a","0.035400000342633575","NA","782.2125000002416","NA","9012.323799999649","0.035400000342633575","971.6534999997821","2","psycho","1024","2","48000","-16","experiment","5","odd","파스타","artifactual","NA","132420.31490000046","30061.86020000041","30061.763900000187","NA","29277.70000000055","15015.080600000147","30060.935900000004","NA","131707.43440000023","15030.971900000623","133499.26770000003","133499.93900000027","24045.29679999996","131915.12930000044","NA","132526.18550000078","131699.1052000003","Extended template","0","1.082700000551995","35","yes","1024"
"0","0","0.030925000020134676","0.030925000020134676","white","yes","psycho","psycho","psycho","0","uniform","0","undefined","0","x","0","0","38","1","1","0","0","0","0","NA","38","0","38","38","0","38","1","38","38","Tue Dec  5 18:44:23 2023","A template containing a practice and an experimental phase","yes","TalkFile_언어학과심리실험_B조_기말과제용심리실험.osexp.osexp","C:\Users\rober\OneDrive\Documents\Downloads","no","mono","no","18","no","black","no","yes","768","psycho","35","35","0","C:/Users/rober/OneDrive/바탕 화면/subject-5.csv","psycho","Lentiform Loewenfeld","3.3.14","no","폭풍","natural","non-word","0","None","NA","a","NA","a","None","n","0.03060000017285347","NA","782.2125000002416","NA","9012.323799999649","0.03060000017285347","3021.322200000199","2","psycho","1024","2","48000","-16","experiment","5","odd","섬강","non-word","NA","134360.9232000008","30061.86020000041","30061.763900000187","NA","29277.70000000055","15015.080600000147","30060.935900000004","NA","133647.85130000018","15030.971900000623","137490.39170000015","137490.92070000008","24045.29679999996","133855.6079","NA","134467.88110000035","133638.47950000037","Extended template","0","1.1133000007248484","36","yes","1024"
"0","0","0.030848648650036822","0.030848648650036822","white","yes","psycho","psycho","psycho","0","uniform","0","undefined","0","n","1","0","39","1","1","0","0","0","0","NA","39","0","39","39","0","39","1","39","39","Tue Dec  5 18:44:23 2023","A template containing a practice and an experimental phase","yes","TalkFile_언어학과심리실험_B조_기말과제용심리실험.osexp.osexp","C:\Users\rober\OneDrive\Documents\Downloads","no","mono","no","18","no","black","no","yes","768","psycho","36","36","0","C:/Users/rober/OneDrive/바탕 화면/subject-5.csv","psycho","Lentiform Loewenfeld","3.3.14","no","스노우보드","artifactual","no-correlation","0","None","NA","a","NA","a","None","n","0.02809999932651408","NA","782.2125000002416","NA","9012.323799999649","0.02809999932651408","1777.517399999837","2","psycho","1024","2","48000","-16","experiment","5","odd","소나무","natural","NA","138360.35360000006","30061.86020000041","30061.763900000187","NA","29277.70000000055","15015.080600000147","30060.935900000004","NA","137646.436","15030.971900000623","140244.63080000077","140245.13170000046","24045.29679999996","137854.49060000066","NA","138465.95190000063","137633.8551000008","Extended template","0","1.1414000000513624","37","yes","1024"
"0","0","0.0307526315974476","0.0307526315974476","white","yes","psycho","psycho","psycho","0","uniform","0","undefined","0","a","1","0","40","1","1","0","0","0","0","NA","40","0","40","40","0","40","1","40","40","Tue Dec  5 18:44:23 2023","A template containing a practice and an experimental phase","yes","TalkFile_언어학과심리실험_B조_기말과제용심리실험.osexp.osexp","C:\Users\rober\OneDrive\Documents\Downloads","no","mono","no","18","no","black","no","yes","768","psycho","37","37","0","C:/Users/rober/OneDrive/바탕 화면/subject-5.csv","psycho","Lentiform Loewenfeld","3.3.14","no","꽃","natural","no-correlation","0","None","NA","a","NA","a","None","a","0.027200000651646405","NA","782.2125000002416","NA","9012.323799999649","0.027200000651646405","4410.5223999995505","2","psycho","1024","2","48000","-16","experiment","5","odd","경주","artifactual","NA","141112.08540000007","30061.86020000041","30061.763900000187","NA","29277.70000000055","15015.080600000147","30060.935900000004","NA","140398.34960000007","15030.971900000623","145629.23150000005","145629.7299000007","24045.29679999996","140606.73020000014","NA","141217.5259000005","140390.17050000076","Extended template","0","1.1686000007030088","38","yes","1024"
"0","0","0.030797435917730372","0.030797435917730372","white","yes","psycho","psycho","psycho","0","uniform","0","undefined","0","a","1","0","41","1","1","0","0","0","0","NA","41","0","41","41","0","41","1","41","41","Tue Dec  5 18:44:23 2023","A template containing a practice and an experimental phase","yes","TalkFile_언어학과심리실험_B조_기말과제용심리실험.osexp.osexp","C:\Users\rober\OneDrive\Documents\Downloads","no","mono","no","18","no","black","no","yes","768","psycho","38","38","0","C:/Users/rober/OneDrive/바탕 화면/subject-5.csv","psycho","Lentiform Loewenfeld","3.3.14","no","종이","artifactual","similar-environmental","0","None","NA","a","NA","a","None","a","0.032500000088475645","NA","782.2125000002416","NA","9012.323799999649","0.032500000088475645","621.4900000004563","2","psycho","1024","2","48000","-16","experiment","5","odd","프린터","artifactual","NA","146484.35470000003","30061.86020000041","30061.763900000187","NA","29277.70000000055","15015.080600000147","30060.935900000004","NA","145770.65889999995","15030.971900000623","147212.74230000016","147213.30180000042","24045.29679999996","145978.55270000035","NA","146590.06260000024","145762.39740000074","Extended template","0","1.2011000007914845","39","yes","1024"
"0","0","0.03072500001071603","0.03072500001071603","white","yes","psycho","psycho","psycho","0","uniform","0","undefined","0","a","0","0","42","1","1","0","0","0","0","NA","42","0","42","42","0","42","1","42","42","Tue Dec  5 18:44:23 2023","A template containing a practice and an experimental phase","yes","TalkFile_언어학과심리실험_B조_기말과제용심리실험.osexp.osexp","C:\Users\rober\OneDrive\Documents\Downloads","no","mono","no","18","no","black","no","yes","768","psycho","39","39","0","C:/Users/rober/OneDrive/바탕 화면/subject-5.csv","psycho","Lentiform Loewenfeld","3.3.14","no","해변","natural","similar-environmental","0","None","NA","a","NA","a","None","x","0.027899999637156725","NA","782.2125000002416","NA","9012.323799999649","0.027899999637156725","3222.6791000002704","2","psycho","1024","2","48000","-16","experiment","5","odd","파라솔","artifactual","NA","148097.11880000032","30061.86020000041","30061.763900000187","NA","29277.70000000055","15015.080600000147","30060.935900000004","NA","147382.48360000033","15030.971900000623","151426.87730000034","151427.43100000007","24045.29679999996","147591.7513000004","NA","148203.07250000042","147374.0084000001","Extended template","0","1.2290000004286412","40","yes","1024"
"0","0","0.030651219542672085","0.030651219542672085","white","yes","psycho","psycho","psycho","0","uniform","0","undefined","0","n","1","0","43","1","1","0","0","0","0","NA","43","0","43","43","0","43","1","43","43","Tue Dec  5 18:44:23 2023","A template containing a practice and an experimental phase","yes","TalkFile_언어학과심리실험_B조_기말과제용심리실험.osexp.osexp","C:\Users\rober\OneDrive\Documents\Downloads","no","mono","no","18","no","black","no","yes","768","psycho","40","40","0","C:/Users/rober/OneDrive/바탕 화면/subject-5.csv","psycho","Lentiform Loewenfeld","3.3.14","no","전등","artifactual","no-correlation","0","None","NA","a","NA","a","None","n","0.027700000820914283","NA","782.2125000002416","NA","9012.323799999649","0.027700000820914283","2177.1938000001537","2","psycho","1024","2","48000","-16","experiment","5","odd","소","natural","NA","152280.37810000023","30061.86020000041","30061.763900000187","NA","29277.70000000055","15015.080600000147","30060.935900000004","NA","151565.11000000045","15030.971900000623","154564.63669999994","154565.29300000056","24045.29679999996","151773.5364","NA","152386.26920000024","151556.93150000024","Extended template","0","1.2567000012495555","41","yes","1024"
"0","0","0.03067142861670748","0.03067142861670748","white","yes","psycho","psycho","psycho","0","uniform","0","undefined","0","a","1","0","44","1","1","0","0","0","0","NA","44","0","44","44","0","44","1","44","44","Tue Dec  5 18:44:23 2023","A template containing a practice and an experimental phase","yes","TalkFile_언어학과심리실험_B조_기말과제용심리실험.osexp.osexp","C:\Users\rober\OneDrive\Documents\Downloads","no","mono","no","18","no","black","no","yes","768","psycho","41","41","0","C:/Users/rober/OneDrive/바탕 화면/subject-5.csv","psycho","Lentiform Loewenfeld","3.3.14","no","바람","natural","similar-environmental","0","None","NA","a","NA","a","None","a","0.03150000065215863","NA","782.2125000002416","NA","9012.323799999649","0.03150000065215863","1070.3450999999477","2","psycho","1024","2","48000","-16","experiment","5","odd","창문","artifactual","NA","155418.4892000003","30061.86020000041","30061.763900000187","NA","29277.70000000055","15015.080600000147","30060.935900000004","NA","154704.40540000072","15030.971900000623","156595.71580000012","156596.3253","24045.29679999996","154912.44520000054","NA","155524.0973","154695.24679999996","Extended template","0","1.2882000019017141","42","yes","1024"
"0","0","0.03059302329093889","0.03059302329093889","white","yes","psycho","psycho","psycho","0","uniform","0","undefined","0","n","1","0","45","1","1","0","0","0","0","NA","45","0","45","45","0","45","1","45","45","Tue Dec  5 18:44:23 2023","A template containing a practice and an experimental phase","yes","TalkFile_언어학과심리실험_B조_기말과제용심리실험.osexp.osexp","C:\Users\rober\OneDrive\Documents\Downloads","no","mono","no","18","no","black","no","yes","768","psycho","42","42","0","C:/Users/rober/OneDrive/바탕 화면/subject-5.csv","psycho","Lentiform Loewenfeld","3.3.14","no","전구","artifactual","similar-environmental","0","None","NA","a","NA","a","None","n","0.027299999608658254","NA","782.2125000002416","NA","9012.323799999649","0.027299999608658254","619.0262999998522","2","psycho","1024","2","48000","-16","experiment","5","odd","빛","natural","NA","157462.69720000055","30061.86020000041","30061.763900000187","NA","29277.70000000055","15015.080600000147","30060.935900000004","NA","156749.69300000067","15030.971900000623","158189.31790000078","158189.95670000004","24045.29679999996","156957.3233000001","NA","157568.9609000001","156739.3935","Extended template","0","1.3155000015103724","43","yes","1024"
"0","0","0.030493181839119643","0.030493181839119643","white","yes","psycho","psycho","psycho","0","uniform","0","undefined","0","a","1","0","46","1","1","0","0","0","0","NA","46","0","46","46","0","46","1","46","46","Tue Dec  5 18:44:23 2023","A template containing a practice and an experimental phase","yes","TalkFile_언어학과심리실험_B조_기말과제용심리실험.osexp.osexp","C:\Users\rober\OneDrive\Documents\Downloads","no","mono","no","18","no","black","no","yes","768","psycho","43","43","0","C:/Users/rober/OneDrive/바탕 화면/subject-5.csv","psycho","Lentiform Loewenfeld","3.3.14","no","구름","natural","same phoneme","0","None","NA","a","NA","a","None","a","0.026199999410891905","NA","782.2125000002416","NA","9012.323799999649","0.026199999410891905","1217.3186999998288","2","psycho","1024","2","48000","-16","experiment","5","odd","구슬","artifactual","NA","159048.1208000001","30061.86020000041","30061.763900000187","NA","29277.70000000055","15015.080600000147","30060.935900000004","NA","158333.25660000084","15030.971900000623","160372.07220000072","160372.6155000004","24045.29679999996","158541.62600000016","NA","159153.57380000025","158323.05350000024","Extended template","0","1.3417000009212643","44","yes","1024"
"0","0","0.030540000019310457","0.030540000019310457","white","yes","psycho","psycho","psycho","0","uniform","0","undefined","0","n","1","0","47","1","1","0","0","0","0","NA","47","0","47","47","0","47","1","47","47","Tue Dec  5 18:44:23 2023","A template containing a practice and an experimental phase","yes","TalkFile_언어학과심리실험_B조_기말과제용심리실험.osexp.osexp","C:\Users\rober\OneDrive\Documents\Downloads","no","mono","no","18","no","black","no","yes","768","psycho","44","44","0","C:/Users/rober/OneDrive/바탕 화면/subject-5.csv","psycho","Lentiform Loewenfeld","3.3.14","no","항구","artifactual","similar-environmental","0","None","NA","a","NA","a","None","n","0.03259999994770624","NA","782.2125000002416","NA","9012.323799999649","0.03259999994770624","594.3549999992538","2","psycho","1024","2","48000","-16","experiment","5","odd","바다","natural","NA","161224.5242000008","30061.86020000041","30061.763900000187","NA","29277.70000000055","15015.080600000147","30060.935900000004","NA","160510.42959999994","15030.971900000623","161926.0828000006","161926.70220000035","24045.29679999996","160718.73720000076","NA","161330.51980000074","160502.5553000005","Extended template","0","1.3743000008689705","45","yes","1024"
"0","0","0.03063260872137186","0.03063260872137186","white","yes","psycho","psycho","psycho","0","uniform","0","undefined","0","a","1","0","48","1","1","0","0","0","0","NA","48","0","48","48","0","48","1","48","48","Tue Dec  5 18:44:23 2023","A template containing a practice and an experimental phase","yes","TalkFile_언어학과심리실험_B조_기말과제용심리실험.osexp.osexp","C:\Users\rober\OneDrive\Documents\Downloads","no","mono","no","18","no","black","no","yes","768","psycho","45","45","0","C:/Users/rober/OneDrive/바탕 화면/subject-5.csv","psycho","Lentiform Loewenfeld","3.3.14","no","로봇","artifactual","same phoneme","0","None","NA","a","NA","a","None","a","0.034800000314135104","NA","782.2125000002416","NA","9012.323799999649","0.034800000314135104","586.0047000005434","2","psycho","1024","2","48000","-16","experiment","5","odd","로켓","artifactual","NA","162781.3188","30061.86020000041","30061.763900000187","NA","29277.70000000055","15015.080600000147","30060.935900000004","NA","162068.0491000003","15030.971900000623","163474.68800000026","163475.33790000033","24045.29679999996","162275.9700000006","NA","162887.12880000003","162059.11830000058","Extended template","0","1.4091000011831056","46","yes","1024"
"0","0","0.030614893632059163","0.030614893632059163","white","yes","psycho","psycho","psycho","0","uniform","0","undefined","0","a","0","0","49","1","1","0","0","0","0","NA","49","0","49","49","0","49","1","49","49","Tue Dec  5 18:44:23 2023","A template containing a practice and an experimental phase","yes","TalkFile_언어학과심리실험_B조_기말과제용심리실험.osexp.osexp","C:\Users\rober\OneDrive\Documents\Downloads","no","mono","no","18","no","black","no","yes","768","psycho","46","46","0","C:/Users/rober/OneDrive/바탕 화면/subject-5.csv","psycho","Lentiform Loewenfeld","3.3.14","no","과일","natural","no-correlation","0","None","NA","a","NA","a","None","n","0.02979999952367507","NA","782.2125000002416","NA","9012.323799999649","0.02979999952367507","757.9262999997882","2","psycho","1024","2","48000","-16","experiment","5","odd","가방","artifactual","NA","164328.01000000018","30061.86020000041","30061.763900000187","NA","29277.70000000055","15015.080600000147","30060.935900000004","NA","163615.09130000015","15030.971900000623","165193.58830000056","165194.20140000057","24045.29679999996","163822.91500000065","NA","164434.4084000004","163606.77770000073","Extended template","0","1.4389000007067807","47","yes","1024"
"0","0","0.030522916669118178","0.030522916669118178","white","yes","psycho","psycho","psycho","0","uniform","0","undefined","0","a","1","0","50","1","1","0","0","0","0","NA","50","0","50","50","0","50","1","50","50","Tue Dec  5 18:44:23 2023","A template containing a practice and an experimental phase","yes","TalkFile_언어학과심리실험_B조_기말과제용심리실험.osexp.osexp","C:\Users\rober\OneDrive\Documents\Downloads","no","mono","no","18","no","black","no","yes","768","psycho","47","47","0","C:/Users/rober/OneDrive/바탕 화면/subject-5.csv","psycho","Lentiform Loewenfeld","3.3.14","no","성냥","artifactual","same phoneme","0","None","NA","a","NA","a","None","a","0.026199999410891905","NA","782.2125000002416","NA","9012.323799999649","0.026199999410891905","650.3818000001193","2","psycho","1024","2","48000","-16","experiment","5","odd","성적표","artifactual","NA","166049.91770000017","30061.86020000041","30061.763900000187","NA","29277.70000000055","15015.080600000147","30060.935900000004","NA","165336.8429000002","15030.971900000623","166807.36120000074","166807.93780000022","24045.29679999996","165544.22410000005","NA","166155.8132","165328.71840000007","Extended template","0","1.4651000001176726","48","yes","1024"
"0","0","0.030477551040738553","0.030477551040738553","white","yes","psycho","psycho","psycho","0","uniform","0","undefined","0","n","1","0","51","1","1","0","0","0","0","NA","51","0","51","51","0","51","1","51","51","Tue Dec  5 18:44:23 2023","A template containing a practice and an experimental phase","yes","TalkFile_언어학과심리실험_B조_기말과제용심리실험.osexp.osexp","C:\Users\rober\OneDrive\Documents\Downloads","no","mono","no","18","no","black","no","yes","768","psycho","48","48","0","C:/Users/rober/OneDrive/바탕 화면/subject-5.csv","psycho","Lentiform Loewenfeld","3.3.14","no","세금","artifactual","same phoneme","0","None","NA","a","NA","a","None","n","0.028300000878516585","NA","782.2125000002416","NA","9012.323799999649","0.028300000878516585","662.2794000004651","2","psycho","1024","2","48000","-16","experiment","5","odd","세포","natural","NA","167663.14030000012","30061.86020000041","30061.763900000187","NA","29277.70000000055","15015.080600000147","30060.935900000004","NA","166949.9407000003","15030.971900000623","168432.60069999995","168433.20829999994","24045.29679999996","167157.4322000006","NA","167769.14560000022","166940.3241","Extended template","0","1.4934000009961892","49","yes","1024"
"0","0","0.03051200003013946","0.03051200003013946","white","yes","psycho","psycho","psycho","0","uniform","0","undefined","0","n","1","0","52","1","1","0","0","0","0","NA","52","0","52","52","0","52","1","52","52","Tue Dec  5 18:44:23 2023","A template containing a practice and an experimental phase","yes","TalkFile_언어학과심리실험_B조_기말과제용심리실험.osexp.osexp","C:\Users\rober\OneDrive\Documents\Downloads","no","mono","no","18","no","black","no","yes","768","psycho","49","49","0","C:/Users/rober/OneDrive/바탕 화면/subject-5.csv","psycho","Lentiform Loewenfeld","3.3.14","no","등산로","artifactual","similar-environmental","0","None","NA","a","NA","a","None","n","0.032200000510783866","NA","782.2125000002416","NA","9012.323799999649","0.032200000510783866","606.0563999999431","2","psycho","1024","2","48000","-16","experiment","5","odd","산","natural","NA","169286.33440000066","30061.86020000041","30061.763900000187","NA","29277.70000000055","15015.080600000147","30060.935900000004","NA","168572.27899999998","15030.971900000623","170001.18509999994","170001.85340000008","24045.29679999996","168781.05440000037","NA","169393.82010000007","168564.20789999992","Extended template","0","1.525600001506973","50","yes","1024"
"0","0","0.030547058860903753","0.030547058860903753","white","yes","psycho","psycho","psycho","0","uniform","0","undefined","0","a","1","0","53","1","1","0","0","0","0","NA","53","0","53","53","0","53","1","53","53","Tue Dec  5 18:44:23 2023","A template containing a practice and an experimental phase","yes","TalkFile_언어학과심리실험_B조_기말과제용심리실험.osexp.osexp","C:\Users\rober\OneDrive\Documents\Downloads","no","mono","no","18","no","black","no","yes","768","psycho","50","50","0","C:/Users/rober/OneDrive/바탕 화면/subject-5.csv","psycho","Lentiform Loewenfeld","3.3.14","no","불","natural","similar-environmental","0","None","NA","a","NA","a","None","a","0.03230000039911829","NA","782.2125000002416","NA","9012.323799999649","0.03230000039911829","1351.3841999992728","2","psycho","1024","2","48000","-16","experiment","5","odd","소화기","artifactual","NA","170859.3064000006","30061.86020000041","30061.763900000187","NA","29277.70000000055","15015.080600000147","30060.935900000004","NA","170145.27270000053","15030.971900000623","172319.28220000007","172319.91840000046","24045.29679999996","170353.00820000065","NA","170966.22580000077","170137.09080000082","Extended template","0","1.5579000019060913","51","yes","1024"
"0","0","0.03059615388505895","0.03059615388505895","white","yes","psycho","psycho","psycho","0","uniform","0","undefined","0","a","0","0","54","1","1","0","0","0","0","NA","54","0","54","54","0","54","1","54","54","Tue Dec  5 18:44:23 2023","A template containing a practice and an experimental phase","yes","TalkFile_언어학과심리실험_B조_기말과제용심리실험.osexp.osexp","C:\Users\rober\OneDrive\Documents\Downloads","no","mono","no","18","no","black","no","yes","768","psycho","51","51","0","C:/Users/rober/OneDrive/바탕 화면/subject-5.csv","psycho","Lentiform Loewenfeld","3.3.14","no","학교","artifactual","inclusive","0","None","NA","a","NA","a","None","n","0.033100000116974115","NA","782.2125000002416","NA","9012.323799999649","0.033100000116974115","6747.857199999969","2","psycho","1024","2","48000","-16","experiment","5","odd","학생","artifactual","NA","173187.40270000036","30061.86020000041","30061.763900000187","NA","29277.70000000055","15015.080600000147","30060.935900000004","NA","172472.22490000058","15030.971900000623","180043.08620000028","180043.71790000005","24045.29679999996","172681.54480000067","NA","173293.09710000054","172457.22350000052","Extended template","0","1.5910000020230655","52","yes","1024"
"0","0","0.03058679249106889","0.03058679249106889","white","yes","psycho","psycho","psycho","0","uniform","0","undefined","0","n","1","0","55","1","1","0","0","0","0","NA","55","0","55","55","0","55","1","55","55","Tue Dec  5 18:44:23 2023","A template containing a practice and an experimental phase","yes","TalkFile_언어학과심리실험_B조_기말과제용심리실험.osexp.osexp","C:\Users\rober\OneDrive\Documents\Downloads","no","mono","no","18","no","black","no","yes","768","psycho","52","52","0","C:/Users/rober/OneDrive/바탕 화면/subject-5.csv","psycho","Lentiform Loewenfeld","3.3.14","no","물고기","natural","no-correlation","0","None","NA","a","NA","a","None","n","0.030100000003585592","NA","782.2125000002416","NA","9012.323799999649","0.030100000003585592","1630.9415000005392","2","psycho","1024","2","48000","-16","experiment","5","odd","밤하늘","natural","NA","180928.68739999994","30061.86020000041","30061.763900000187","NA","29277.70000000055","15015.080600000147","30060.935900000004","NA","180209.26039999994","15030.971900000623","182666.8060000002","182667.46760000024","24045.29679999996","180423.5258000008","NA","181034.51010000025","180200.62080000027","Extended template","0","1.621100002026651","53","yes","1024"
"0","0","0.030592592624964676","0.030592592624964676","white","yes","psycho","psycho","psycho","0","uniform","0","undefined","0","n","1","0","56","1","1","0","0","0","0","NA","56","0","56","56","0","56","1","56","56","Tue Dec  5 18:44:23 2023","A template containing a practice and an experimental phase","yes","TalkFile_언어학과심리실험_B조_기말과제용심리실험.osexp.osexp","C:\Users\rober\OneDrive\Documents\Downloads","no","mono","no","18","no","black","no","yes","768","psycho","53","53","0","C:/Users/rober/OneDrive/바탕 화면/subject-5.csv","psycho","Lentiform Loewenfeld","3.3.14","no","꽃","natural","inclusive","0","None","NA","a","NA","a","None","n","0.030899999721441418","NA","782.2125000002416","NA","9012.323799999649","0.030899999721441418","14493.881700000202","2","psycho","1024","2","48000","-16","experiment","5","odd","해바라기","natural","NA","183519.40869999997","30061.86020000041","30061.763900000187","NA","29277.70000000055","15015.080600000147","30060.935900000004","NA","182804.3230000003","15030.971900000623","198120.84440000035","198121.53860000035","24045.29679999996","183012.54659999994","NA","183625.57980000018","182796.22430000018","Extended template","0","1.6520000017480925","54","yes","1024"
"0","0","0.030530909134540707","0.030530909134540707","white","yes","psycho","psycho","psycho","0","uniform","0","undefined","0","n","1","0","57","1","1","0","0","0","0","NA","57","0","57","57","0","57","1","57","57","Tue Dec  5 18:44:23 2023","A template containing a practice and an experimental phase","yes","TalkFile_언어학과심리실험_B조_기말과제용심리실험.osexp.osexp","C:\Users\rober\OneDrive\Documents\Downloads","no","mono","no","18","no","black","no","yes","768","psycho","54","54","0","C:/Users/rober/OneDrive/바탕 화면/subject-5.csv","psycho","Lentiform Loewenfeld","3.3.14","no","해마","natural","same phoneme","0","None","NA","a","NA","a","None","n","0.027200000651646405","NA","782.2125000002416","NA","9012.323799999649","0.027200000651646405","587.6887000003771","2","psycho","1024","2","48000","-16","experiment","5","odd","해질녘","natural","NA","198994.57390000043","30061.86020000041","30061.763900000187","NA","29277.70000000055","15015.080600000147","30060.935900000004","NA","198280.6556000005","15030.971900000623","199689.66249999995","199690.29900000078","24045.29679999996","198489.28240000078","NA","199100.72000000038","198271.6119000006","Extended template","0","1.6792000023997389","55","yes","1024"
"0","0","0.03055000005094501","0.03055000005094501","white","yes","psycho","psycho","psycho","0","uniform","0","undefined","0","n","1","0","58","1","1","0","0","0","0","NA","58","0","58","58","0","58","1","58","58","Tue Dec  5 18:44:23 2023","A template containing a practice and an experimental phase","yes","TalkFile_언어학과심리실험_B조_기말과제용심리실험.osexp.osexp","C:\Users\rober\OneDrive\Documents\Downloads","no","mono","no","18","no","black","no","yes","768","psycho","55","55","0","C:/Users/rober/OneDrive/바탕 화면/subject-5.csv","psycho","Lentiform Loewenfeld","3.3.14","no","달력","artifactual","same phoneme","0","None","NA","a","NA","a","None","n","0.031600000453181565","NA","782.2125000002416","NA","9012.323799999649","0.031600000453181565","99246.4769000007","2","psycho","1024","2","48000","-16","experiment","5","odd","달","natural","NA","200551.5122000006","30061.86020000041","30061.763900000187","NA","29277.70000000055","15015.080600000147","30060.935900000004","NA","199837.2326000008","15030.971900000623","299905.3236","299906.0174000006","24045.29679999996","200045.39879999994","NA","200657.21759999997","199828.6044000006","Extended template","0","1.7108000028529204","56","yes","1024"
"0","0","0.030485964950027044","0.030485964950027044","white","yes","psycho","psycho","psycho","0","uniform","0","undefined","0","a","1","0","59","1","1","0","0","0","0","NA","59","0","59","59","0","59","1","59","59","Tue Dec  5 18:44:23 2023","A template containing a practice and an experimental phase","yes","TalkFile_언어학과심리실험_B조_기말과제용심리실험.osexp.osexp","C:\Users\rober\OneDrive\Documents\Downloads","no","mono","no","18","no","black","no","yes","768","psycho","56","56","0","C:/Users/rober/OneDrive/바탕 화면/subject-5.csv","psycho","Lentiform Loewenfeld","3.3.14","no","기차","artifactual","no-correlation","0","None","NA","a","NA","a","None","a","0.02689999929862097","NA","782.2125000002416","NA","9012.323799999649","0.02689999929862097","821.0135999997729","2","psycho","1024","2","48000","-16","experiment","5","odd","가방","artifactual","NA","300768.75259999995","30061.86020000041","30061.763900000187","NA","29277.70000000055","15015.080600000147","30060.935900000004","NA","300055.17090000014","15030.971900000623","301696.63040000066","301697.55299999996","24045.29679999996","300263.3543000002","NA","300874.3946000004","300046.7423","Extended template","0","1.7377000021515414","57","yes","1024"
"0","0","0.030472413824413548","0.030472413824413548","white","yes","psycho","psycho","psycho","0","uniform","0","undefined","0","a","1","0","60","1","1","0","0","0","0","NA","60","0","60","60","0","60","1","60","60","Tue Dec  5 18:44:23 2023","A template containing a practice and an experimental phase","yes","TalkFile_언어학과심리실험_B조_기말과제용심리실험.osexp.osexp","C:\Users\rober\OneDrive\Documents\Downloads","no","mono","no","18","no","black","no","yes","768","psycho","57","57","0","C:/Users/rober/OneDrive/바탕 화면/subject-5.csv","psycho","Lentiform Loewenfeld","3.3.14","no","바람","natural","no-correlation","0","None","NA","a","NA","a","None","a","0.029699999664444476","NA","782.2125000002416","NA","9012.323799999649","0.029699999664444476","667.2589000000153","2","psycho","1024","2","48000","-16","experiment","5","odd","버스","artifactual","NA","302553.3963000007","30061.86020000041","30061.763900000187","NA","29277.70000000055","15015.080600000147","30060.935900000004","NA","301840.08260000066","15030.971900000623","303327.37270000053","303328.05820000067","24045.29679999996","302048.09830000065","NA","302658.7696000006","301830.8890000008","Extended template","0","1.7674000018159859","58","yes","1024"
"0","0","0.030430508512111726","0.030430508512111726","white","yes","psycho","psycho","psycho","0","uniform","0","undefined","0","a","1","0","61","1","1","0","0","0","0","NA","61","0","61","61","0","61","1","61","61","Tue Dec  5 18:44:23 2023","A template containing a practice and an experimental phase","yes","TalkFile_언어학과심리실험_B조_기말과제용심리실험.osexp.osexp","C:\Users\rober\OneDrive\Documents\Downloads","no","mono","no","18","no","black","no","yes","768","psycho","58","58","0","C:/Users/rober/OneDrive/바탕 화면/subject-5.csv","psycho","Lentiform Loewenfeld","3.3.14","no","호수","natural","no-correlation","0","None","NA","a","NA","a","None","a","0.028000000398606062","NA","782.2125000002416","NA","9012.323799999649","0.028000000398606062","665.937299999292","2","psycho","1024","2","48000","-16","experiment","5","odd","대학교","artifactual","NA","304186.30480000045","30061.86020000041","30061.763900000187","NA","29277.70000000055","15015.080600000147","30060.935900000004","NA","303473.2218000008","15030.971900000623","304959.4942000003","304960.19060000073","24045.29679999996","303680.75820000016","NA","304292.0993000007","303464.2246000003","Extended template","0","1.795400002214592","59","yes","1024"
"0","0","0.030553333362331615","0.030553333362331615","white","yes","psycho","psycho","psycho","0","uniform","0","undefined","0","n","1","0","62","1","1","0","0","0","0","NA","62","0","62","62","0","62","1","62","62","Tue Dec  5 18:44:23 2023","A template containing a practice and an experimental phase","yes","TalkFile_언어학과심리실험_B조_기말과제용심리실험.osexp.osexp","C:\Users\rober\OneDrive\Documents\Downloads","no","mono","no","18","no","black","no","yes","768","psycho","59","59","0","C:/Users/rober/OneDrive/바탕 화면/subject-5.csv","psycho","Lentiform Loewenfeld","3.3.14","no","호수","natural","no-correlation","0","None","NA","a","NA","a","None","n","0.037799999525304884","NA","782.2125000002416","NA","9012.323799999649","0.037799999525304884","592.9286000000429","2","psycho","1024","2","48000","-16","experiment","5","odd","소나무","natural","NA","305814.1295000005","30061.86020000041","30061.763900000187","NA","29277.70000000055","15015.080600000147","30060.935900000004","NA","305100.80110000033","15030.971900000623","306515.4985000008","306516.4305000008","24045.29679999996","305308.52219999995","NA","305920.5503000003","305092.1731000008","Extended template","0","1.8332000017398968","60","yes","1024"
"0","0","0.03057540986652593","0.03057540986652593","white","yes","psycho","psycho","psycho","0","uniform","0","undefined","0","n","1","0","63","1","1","0","0","0","0","NA","63","0","63","63","0","63","1","63","63","Tue Dec  5 18:44:23 2023","A template containing a practice and an experimental phase","yes","TalkFile_언어학과심리실험_B조_기말과제용심리실험.osexp.osexp","C:\Users\rober\OneDrive\Documents\Downloads","no","mono","no","18","no","black","no","yes","768","psycho","60","60","0","C:/Users/rober/OneDrive/바탕 화면/subject-5.csv","psycho","Lentiform Loewenfeld","3.3.14","no","얼음","natural","no-correlation","0","None","NA","a","NA","a","None","n","0.031900000118184835","NA","782.2125000002416","NA","9012.323799999649","0.031900000118184835","530.8388000003179","2","psycho","1024","2","48000","-16","experiment","5","odd","돌","natural","NA","307372.2359000003","30061.86020000041","30061.763900000187","NA","29277.70000000055","15015.080600000147","30060.935900000004","NA","306658.1896000007","15030.971900000623","308010.2636000001","308011.0282000005","24045.29679999996","306866.23800000054","NA","307477.6743000002","306649.96000000066","Extended template","0","1.8651000018580817","61","yes","1024"
"0","0","0.03053387100320129","0.03053387100320129","white","yes","psycho","psycho","psycho","0","uniform","0","undefined","0","a","1","0","64","1","1","0","0","0","0","NA","64","0","64","64","0","64","1","64","64","Tue Dec  5 18:44:23 2023","A template containing a practice and an experimental phase","yes","TalkFile_언어학과심리실험_B조_기말과제용심리실험.osexp.osexp","C:\Users\rober\OneDrive\Documents\Downloads","no","mono","no","18","no","black","no","yes","768","psycho","61","61","0","C:/Users/rober/OneDrive/바탕 화면/subject-5.csv","psycho","Lentiform Loewenfeld","3.3.14","no","향수","artifactual","no-correlation","0","None","NA","a","NA","a","None","a","0.0280000003403984","NA","782.2125000002416","NA","9012.323799999649","0.0280000003403984","48596.11889999994","2","psycho","1024","2","48000","-16","experiment","5","odd","선풍기","artifactual","NA","308888.4940000007","30061.86020000041","30061.763900000187","NA","29277.70000000055","15015.080600000147","30060.935900000004","NA","308173.41060000035","15030.971900000623","357591.5487000002","357592.2554000008","24045.29679999996","308382.9035000008","NA","308994.0205000003","308165.4948000005","Extended template","0","1.89310000219848","62","yes","1024"
"0","0","0.030473015901248252","0.030473015901248252","white","yes","psycho","psycho","psycho","0","uniform","0","undefined","0","a","1","0","65","1","1","0","0","0","0","NA","65","0","65","65","0","65","1","65","65","Tue Dec  5 18:44:23 2023","A template containing a practice and an experimental phase","yes","TalkFile_언어학과심리실험_B조_기말과제용심리실험.osexp.osexp","C:\Users\rober\OneDrive\Documents\Downloads","no","mono","no","18","no","black","no","yes","768","psycho","62","62","0","C:/Users/rober/OneDrive/바탕 화면/subject-5.csv","psycho","Lentiform Loewenfeld","3.3.14","no","키보드","artifactual","similar-environmental","0","None","NA","a","NA","a","None","a","0.026699999580159783","NA","782.2125000002416","NA","9012.323799999649","0.026699999580159783","805.9689000001526","2","psycho","1024","2","48000","-16","experiment","5","odd","컴퓨터","artifactual","NA","358460.7608000006","30061.86020000041","30061.763900000187","NA","29277.70000000055","15015.080600000147","30060.935900000004","NA","357746.5047000005","15030.971900000623","359374.1363000008","359374.8666000001","24045.29679999996","357955.8764000003","NA","358566.85860000015","357737.08160000027","Extended template","0","1.9198000017786399","63","yes","1024"
"0","0","0.030465625030046795","0.030465625030046795","white","yes","psycho","psycho","psycho","0","uniform","0","undefined","0","a","1","0","66","1","1","0","0","0","0","NA","66","0","66","66","0","66","1","66","66","Tue Dec  5 18:44:23 2023","A template containing a practice and an experimental phase","yes","TalkFile_언어학과심리실험_B조_기말과제용심리실험.osexp.osexp","C:\Users\rober\OneDrive\Documents\Downloads","no","mono","no","18","no","black","no","yes","768","psycho","63","63","0","C:/Users/rober/OneDrive/바탕 화면/subject-5.csv","psycho","Lentiform Loewenfeld","3.3.14","no","모니터","artifactual","same phoneme","0","None","NA","a","NA","a","None","a","0.030000000144355","NA","782.2125000002416","NA","9012.323799999649","0.030000000144355","724.3987000001944","2","psycho","1024","2","48000","-16","experiment","5","odd","모터","artifactual","NA","360231.0821000001","30061.86020000041","30061.763900000187","NA","29277.70000000055","15015.080600000147","30060.935900000004","NA","359518.4062000008","15030.971900000623","361062.33410000004","361063.0823000001","24045.29679999996","359726.06410000025","NA","360336.4645000001","359509.3212000002","Extended template","0","1.9498000019229949","64","yes","1024"
"0","0","0.03224461541708129","0.03224461541708129","white","yes","psycho","psycho","psycho","0","uniform","0","undefined","0","a","1","0","67","1","1","0","0","0","0","NA","67","0","67","67","0","67","1","67","67","Tue Dec  5 18:44:23 2023","A template containing a practice and an experimental phase","yes","TalkFile_언어학과심리실험_B조_기말과제용심리실험.osexp.osexp","C:\Users\rober\OneDrive\Documents\Downloads","no","mono","no","18","no","black","no","yes","768","psycho","64","64","0","C:/Users/rober/OneDrive/바탕 화면/subject-5.csv","psycho","Lentiform Loewenfeld","3.3.14","no","꽃","natural","no-correlation","0","None","NA","a","NA","a","None","a","0.14610000018728897","NA","782.2125000002416","NA","9012.323799999649","0.14610000018728897","2682.1575000003213","2","psycho","1024","2","48000","-16","experiment","5","odd","풍차","artifactual","NA","361917.1649","30061.86020000041","30061.763900000187","NA","29277.70000000055","15015.080600000147","30060.935900000004","NA","361203.1859000008","15030.971900000623","364711.05220000027","364715.5477000006","24045.29679999996","361411.37770000024","NA","362024.3012000001","361193.6882","Extended template","0","2.095900002110284","65","yes","1024"
"0","0","0.03226818184978611","0.03226818184978611","white","yes","psycho","psycho","psycho","0","uniform","0","undefined","0","a","1","0","68","1","1","0","0","0","0","NA","68","0","68","68","0","68","1","68","68","Tue Dec  5 18:44:23 2023","A template containing a practice and an experimental phase","yes","TalkFile_언어학과심리실험_B조_기말과제용심리실험.osexp.osexp","C:\Users\rober\OneDrive\Documents\Downloads","no","mono","no","18","no","black","no","yes","768","psycho","65","65","0","C:/Users/rober/OneDrive/바탕 화면/subject-5.csv","psycho","Lentiform Loewenfeld","3.3.14","no","경주","artifactual","no-correlation","0","None","NA","a","NA","a","None","a","0.03379999997559935","NA","782.2125000002416","NA","9012.323799999649","0.03379999997559935","3144.8813999996055","2","psycho","1024","2","48000","-16","experiment","5","odd","버스","artifactual","NA","365754.4304000003","30061.86020000041","30061.763900000187","NA","29277.70000000055","15015.080600000147","30060.935900000004","NA","365024.28320000035","15030.971900000623","369010.9128000004","369011.74260000064","24045.29679999996","365242.5893","NA","365864.1948000004","365007.6011000001","Extended template","0","2.129700002085883","66","yes","1024"
"0","0","0.03222238809763412","0.03222238809763412","white","yes","psycho","psycho","psycho","0","uniform","0","undefined","0","n","1","0","69","1","1","0","0","0","0","NA","69","0","69","69","0","69","1","69","69","Tue Dec  5 18:44:23 2023","A template containing a practice and an experimental phase","yes","TalkFile_언어학과심리실험_B조_기말과제용심리실험.osexp.osexp","C:\Users\rober\OneDrive\Documents\Downloads","no","mono","no","18","no","black","no","yes","768","psycho","66","66","0","C:/Users/rober/OneDrive/바탕 화면/subject-5.csv","psycho","Lentiform Loewenfeld","3.3.14","no","박쥐","natural","similar-environmental","0","None","NA","a","NA","a","None","n","0.029200000455603004","NA","782.2125000002416","NA","9012.323799999649","0.029200000455603004","3396.5665000005392","2","psycho","1024","2","48000","-16","experiment","5","odd","동굴","natural","NA","369876.0454000003","30061.86020000041","30061.763900000187","NA","29277.70000000055","15015.080600000147","30060.935900000004","NA","369162.9802000007","15030.971900000623","373381.98310000007","373382.77000000014","24045.29679999996","369370.65090000036","NA","369983.9896000003","369153.04410000046","Extended template","0","2.158900002541486","67","yes","1024"
"0","0","0.032185294163783136","0.032185294163783136","white","yes","psycho","psycho","psycho","0","uniform","0","undefined","0","a","1","0","70","1","1","0","0","0","0","NA","70","0","70","70","0","70","1","70","70","Tue Dec  5 18:44:23 2023","A template containing a practice and an experimental phase","yes","TalkFile_언어학과심리실험_B조_기말과제용심리실험.osexp.osexp","C:\Users\rober\OneDrive\Documents\Downloads","no","mono","no","18","no","black","no","yes","768","psycho","67","67","0","C:/Users/rober/OneDrive/바탕 화면/subject-5.csv","psycho","Lentiform Loewenfeld","3.3.14","no","옷","artifactual","inclusive","0","None","NA","a","NA","a","None","a","0.02970000059576705","NA","782.2125000002416","NA","9012.323799999649","0.02970000059576705","1157.553699999873","2","psycho","1024","2","48000","-16","experiment","5","odd","코트","artifactual","NA","374236.58820000035","30061.86020000041","30061.763900000187","NA","29277.70000000055","15015.080600000147","30060.935900000004","NA","373522.30260000034","15030.971900000623","375501.7005","375502.77320000075","24045.29679999996","373731.1331000001","NA","374342.65140000026","373514.1441000005","Extended template","0","2.1886000031372532","68","yes","1024"
"0","0","0.03224347830763546","0.03224347830763546","white","yes","psycho","psycho","psycho","0","uniform","0","undefined","0","n","1","0","71","1","1","0","0","0","0","NA","71","0","71","71","0","71","1","71","71","Tue Dec  5 18:44:23 2023","A template containing a practice and an experimental phase","yes","TalkFile_언어학과심리실험_B조_기말과제용심리실험.osexp.osexp","C:\Users\rober\OneDrive\Documents\Downloads","no","mono","no","18","no","black","no","yes","768","psycho","68","68","0","C:/Users/rober/OneDrive/바탕 화면/subject-5.csv","psycho","Lentiform Loewenfeld","3.3.14","no","대학교","artifactual","no-correlation","0","None","NA","a","NA","a","None","n","0.03620000008959323","NA","782.2125000002416","NA","9012.323799999649","0.03620000008959323","2610.1822000000393","2","psycho","1024","2","48000","-16","experiment","5","odd","계곡","natural","NA","376371.09500000044","30061.86020000041","30061.763900000187","NA","29277.70000000055","15015.080600000147","30060.935900000004","NA","375657.0887000007","15030.971900000623","379088.9616000004","379090.3711000001","24045.29679999996","375866.2032000002","NA","376477.0253000006","375648.8938000002","Extended template","0","2.2248000032268465","69","yes","1024"
"0","0","0.03228285718942061","0.03228285718942061","white","yes","psycho","psycho","psycho","0","uniform","0","undefined","0","a","1","0","72","1","1","0","0","0","0","NA","72","0","72","72","0","72","1","72","72","Tue Dec  5 18:44:23 2023","A template containing a practice and an experimental phase","yes","TalkFile_언어학과심리실험_B조_기말과제용심리실험.osexp.osexp","C:\Users\rober\OneDrive\Documents\Downloads","no","mono","no","18","no","black","no","yes","768","psycho","69","69","0","C:/Users/rober/OneDrive/바탕 화면/subject-5.csv","psycho","Lentiform Loewenfeld","3.3.14","no","화분","artifactual","no-correlation","0","None","NA","a","NA","a","None","a","0.03500000003259629","NA","782.2125000002416","NA","9012.323799999649","0.03500000003259629","7049.496500000707","2","psycho","1024","2","48000","-16","experiment","5","odd","신발","artifactual","NA","379946.8452999999","30061.86020000041","30061.763900000187","NA","29277.70000000055","15015.080600000147","30060.935900000004","NA","379232.1682000002","15030.971900000623","387103.7141000006","387104.77020000055","24045.29679999996","379440.7119000007","NA","380052.44330000004","379223.7398000007","Extended template","0","2.2598000032594427","70","yes","1024"
"0","0","0.03223943667122307","0.03223943667122307","white","yes","psycho","psycho","psycho","0","uniform","0","undefined","0","a","1","0","73","1","1","0","0","0","0","NA","73","0","73","73","0","73","1","73","73","Tue Dec  5 18:44:23 2023","A template containing a practice and an experimental phase","yes","TalkFile_언어학과심리실험_B조_기말과제용심리실험.osexp.osexp","C:\Users\rober\OneDrive\Documents\Downloads","no","mono","no","18","no","black","no","yes","768","psycho","70","70","0","C:/Users/rober/OneDrive/바탕 화면/subject-5.csv","psycho","Lentiform Loewenfeld","3.3.14","no","벌레","natural","same phoneme","0","None","NA","a","NA","a","None","a","0.029200000397395343","NA","782.2125000002416","NA","9012.323799999649","0.029200000397395343","7168.496399999654","2","psycho","1024","2","48000","-16","experiment","5","odd","발레","artifactual","NA","387964.17850000033","30061.86020000041","30061.763900000187","NA","29277.70000000055","15015.080600000147","30060.935900000004","NA","387250.88640000013","15030.971900000623","395240.0630000002","395241.17420000036","24045.29679999996","387459.1865000002","NA","388069.8808000006","387242.59620000067","Extended template","0","2.289000003656838","71","yes","1024"
"0","0","0.032201388939736515","0.032201388939736515","white","yes","psycho","psycho","psycho","0","uniform","0","undefined","0","a","1","0","74","1","1","0","0","0","0","NA","74","0","74","74","0","74","1","74","74","Tue Dec  5 18:44:23 2023","A template containing a practice and an experimental phase","yes","TalkFile_언어학과심리실험_B조_기말과제용심리실험.osexp.osexp","C:\Users\rober\OneDrive\Documents\Downloads","no","mono","no","18","no","black","no","yes","768","psycho","71","71","0","C:/Users/rober/OneDrive/바탕 화면/subject-5.csv","psycho","Lentiform Loewenfeld","3.3.14","no","컴퓨터","artifactual","similar-environmental","0","None","NA","a","NA","a","None","a","0.02950000000419095","NA","782.2125000002416","NA","9012.323799999649","0.02950000000419095","9626.963799999445","2","psycho","1024","2","48000","-16","experiment","5","odd","키보드","artifactual","NA","396131.09410000016","30061.86020000041","30061.763900000187","NA","29277.70000000055","15015.080600000147","30060.935900000004","NA","395416.74120000063","15030.971900000623","405865.58110000077","405867.2978000004","24045.29679999996","395625.04620000074","NA","396237.1281000005","395407.8582000002","Extended template","0","2.318500003661029","72","yes","1024"
"0","0","0.03226575347409928","0.03226575347409928","white","yes","psycho","psycho","psycho","0","uniform","0","undefined","0","n","1","0","75","1","1","0","0","0","0","NA","75","0","75","75","0","75","1","75","75","Tue Dec  5 18:44:23 2023","A template containing a practice and an experimental phase","yes","TalkFile_언어학과심리실험_B조_기말과제용심리실험.osexp.osexp","C:\Users\rober\OneDrive\Documents\Downloads","no","mono","no","18","no","black","no","yes","768","psycho","72","72","0","C:/Users/rober/OneDrive/바탕 화면/subject-5.csv","psycho","Lentiform Loewenfeld","3.3.14","no","모래","natural","similar-environmental","0","None","NA","a","NA","a","None","n","0.036899999948218465","NA","782.2125000002416","NA","9012.323799999649","0.036899999948218465","1293.3163000007044","2","psycho","1024","2","48000","-16","experiment","5","odd","자갈","natural","NA","406748.1134","30061.86020000041","30061.763900000187","NA","29277.70000000055","15015.080600000147","30060.935900000004","NA","406034.66810000007","15030.971900000623","408148.48840000015","408151.6074000001","24045.29679999996","406242.7642000002","NA","406853.6217999999","406023.82360000047","Extended template","0","2.3554000036092475","73","yes","1024"
"0","0","0.032597297340839146","0.032597297340839146","white","yes","psycho","psycho","psycho","0","uniform","0","undefined","0","n","1","0","76","1","1","0","0","0","0","NA","76","0","76","76","0","76","1","76","76","Tue Dec  5 18:44:23 2023","A template containing a practice and an experimental phase","yes","TalkFile_언어학과심리실험_B조_기말과제용심리실험.osexp.osexp","C:\Users\rober\OneDrive\Documents\Downloads","no","mono","no","18","no","black","no","yes","768","psycho","73","73","0","C:/Users/rober/OneDrive/바탕 화면/subject-5.csv","psycho","Lentiform Loewenfeld","3.3.14","no","불","natural","no-correlation","0","None","NA","a","NA","a","None","n","0.056799999612849206","NA","782.2125000002416","NA","9012.323799999649","0.056799999612849206","736.8296000004048","2","psycho","1024","2","48000","-16","experiment","5","odd","물고기","natural","NA","409007.95259999996","30061.86020000041","30061.763900000187","NA","29277.70000000055","15015.080600000147","30060.935900000004","NA","408292.6283000006","15030.971900000623","409855.36540000065","409856.7107000008","24045.29679999996","408502.5480000004","NA","409113.8496000003","408284.74080000067","Extended template","0","2.4122000032220967","74","yes","1024"
"0","0","0.03254933338612318","0.03254933338612318","white","yes","psycho","psycho","psycho","0","uniform","0","undefined","0","x","0","0","77","1","1","0","0","0","0","NA","77","0","77","77","0","77","1","77","77","Tue Dec  5 18:44:23 2023","A template containing a practice and an experimental phase","yes","TalkFile_언어학과심리실험_B조_기말과제용심리실험.osexp.osexp","C:\Users\rober\OneDrive\Documents\Downloads","no","mono","no","18","no","black","no","yes","768","psycho","74","74","0","C:/Users/rober/OneDrive/바탕 화면/subject-5.csv","psycho","Lentiform Loewenfeld","3.3.14","no","시계","artifactual","non-word","0","None","NA","a","NA","a","None","a","0.029000000737141818","NA","782.2125000002416","NA","9012.323799999649","0.029000000737141818","1481.7397999995737","2","psycho","1024","2","48000","-16","experiment","5","odd","책솜","non-word","NA","410717.2178000001","30061.86020000041","30061.763900000187","NA","29277.70000000055","15015.080600000147","30060.935900000004","NA","409999.15350000083","15030.971900000623","412305.82219999994","412306.6690000005","24045.29679999996","410209.87660000083","NA","410822.5740000007","409990.4823000006","Extended template","0","2.4412000039592385","75","yes","1024"
"0","0","0.03321842110783205","0.03321842110783205","white","yes","psycho","psycho","psycho","0","uniform","0","undefined","0","a","1","0","78","1","1","0","0","0","0","NA","78","0","78","78","0","78","1","78","78","Tue Dec  5 18:44:23 2023","A template containing a practice and an experimental phase","yes","TalkFile_언어학과심리실험_B조_기말과제용심리실험.osexp.osexp","C:\Users\rober\OneDrive\Documents\Downloads","no","mono","no","18","no","black","no","yes","768","psycho","75","75","0","C:/Users/rober/OneDrive/바탕 화면/subject-5.csv","psycho","Lentiform Loewenfeld","3.3.14","no","전기","natural","similar-environmental","0","None","NA","a","NA","a","None","a","0.08340000023599714","NA","782.2125000002416","NA","9012.323799999649","0.08340000023599714","823.4068000001716","2","psycho","1024","2","48000","-16","experiment","5","odd","전선","artifactual","NA","413158.2381000008","30061.86020000041","30061.763900000187","NA","29277.70000000055","15015.080600000147","30060.935900000004","NA","412444.81900000025","15030.971900000623","414094.15830000036","414096.47290000063","24045.29679999996","412653.0477000006","NA","413264.4459000003","412436.38040000043","Extended template","0","2.5246000041952357","76","yes","1024"
"0","0","0.03314675330018092","0.03314675330018092","white","yes","psycho","psycho","psycho","0","uniform","0","undefined","0","a","1","0","79","1","1","0","0","0","0","NA","79","0","79","79","0","79","1","79","79","Tue Dec  5 18:44:23 2023","A template containing a practice and an experimental phase","yes","TalkFile_언어학과심리실험_B조_기말과제용심리실험.osexp.osexp","C:\Users\rober\OneDrive\Documents\Downloads","no","mono","no","18","no","black","no","yes","768","psycho","76","76","0","C:/Users/rober/OneDrive/바탕 화면/subject-5.csv","psycho","Lentiform Loewenfeld","3.3.14","no","바다","natural","same phoneme","0","None","NA","a","NA","a","None","a","0.02769999991869554","NA","782.2125000002416","NA","9012.323799999649","0.02769999991869554","598.0386999999755","2","psycho","1024","2","48000","-16","experiment","5","odd","바구니","artifactual","NA","414951.06320000015","30061.86020000041","30061.763900000187","NA","29277.70000000055","15015.080600000147","30060.935900000004","NA","414237.4405","15030.971900000623","415656.5367000003","415657.56390000024","24045.29679999996","414445.6033000006","NA","415056.84650000057","414229.36440000014","Extended template","0","2.552300004113931","77","yes","1024"
"0","0","0.03315128209755923","0.03315128209755923","white","yes","psycho","psycho","psycho","0","uniform","0","undefined","0","a","1","0","80","1","1","0","0","0","0","NA","80","0","80","80","0","80","1","80","80","Tue Dec  5 18:44:23 2023","A template containing a practice and an experimental phase","yes","TalkFile_언어학과심리실험_B조_기말과제용심리실험.osexp.osexp","C:\Users\rober\OneDrive\Documents\Downloads","no","mono","no","18","no","black","no","yes","768","psycho","77","77","0","C:/Users/rober/OneDrive/바탕 화면/subject-5.csv","psycho","Lentiform Loewenfeld","3.3.14","no","건물","artifactual","inclusive","0","None","NA","a","NA","a","None","a","0.033499999495688826","NA","782.2125000002416","NA","9012.323799999649","0.033499999495688826","598.7784999997239","2","psycho","1024","2","48000","-16","experiment","5","odd","병원","artifactual","NA","416517.2364","30061.86020000041","30061.763900000187","NA","29277.70000000055","15015.080600000147","30060.935900000004","NA","415802.51570000016","15030.971900000623","417223.7135000005","417224.6991000002","24045.29679999996","416010.65140000085","NA","416622.9925000007","415794.6305000005","Extended template","0","2.58580000360962","78","yes","1024"
