"acc","accuracy","average_response_time","avg_rt","background","bidi","canvas_backend","clock_backend","color_backend","compensation","coordinates","correct","correct_instructions","correct_keyboard_response","correct_response","correct_target","count_about_this_template","count_blank","count_block_loop","count_block_sequence","count_end_of_experiment","count_end_of_practice","count_experiment","count_experimental_loop","count_feedback","count_fixation","count_instructions","count_keyboard_response","count_logger","count_practice_loop","count_prime","count_reset_feedback","count_target","count_trial_sequence","datetime","description","disable_garbage_collection","experiment_file","experiment_path","font_bold","font_family","font_italic","font_size","font_underline","foreground","form_clicks","fullscreen","height","keyboard_backend","live_row","live_row_block_loop","live_row_practice_loop","logfile","mouse_backend","opensesame_codename","opensesame_version","practice","prime","prime_condition","relation","repeat_cycle","response","response_end_of_experiment","response_end_of_practice","response_feedback","response_instructions","response_keyboard_response","response_target","response_time","response_time_end_of_experiment","response_time_end_of_practice","response_time_feedback","response_time_instructions","response_time_keyboard_response","response_time_target","round_decimals","sampler_backend","sound_buf_size","sound_channels","sound_freq","sound_sample_size","start","subject_nr","subject_parity","target","target_condition","time_about_this_template","time_blank","time_block_loop","time_block_sequence","time_end_of_experiment","time_end_of_practice","time_experiment","time_experimental_loop","time_feedback","time_fixation","time_instructions","time_keyboard_response","time_logger","time_practice_loop","time_prime","time_reset_feedback","time_target","time_trial_sequence","title","total_correct","total_response_time","total_responses","uniform_coordinates","width"
"0","0","0.026900000171735883","0.026900000171735883","white","yes","psycho","psycho","psycho","0","uniform","0","undefined","0","a","1","0","0","0","0","0","0","0","0","NA","0","0","0","0","0","0","0","0","0","Tue Dec  5 17:21:14 2023","A template containing a practice and an experimental phase","yes","TalkFile_언어학과심리실험_B조_기말과제용심리실험.osexp.osexp","C:\Users\rober\OneDrive\Documents\Downloads","no","mono","no","18","no","black","no","yes","768","psycho","0","0","0","C:/Users/rober/OneDrive/바탕 화면/subject-1.csv","psycho","Lentiform Loewenfeld","3.3.14","yes","건물","artifactual","inclusive","0","None","NA","NA","NA","a","None","a","0.026900000171735883","NA","NA","NA","125830.62359999986","0.026900000171735883","2144.35249999995","2","psycho","1024","2","48000","-16","experiment","1","odd","병원","artifactual","NA","153488.56509999995","152607.49859999988","152607.2277999997","NA","NA","26661.1998999997","NA","NA","152773.04679999998","26773.295999999846","155739.6902999999","155739.86049999984","152606.30459999992","152982.05049999978","NA","153594.58270000006","152755.58950000003","Extended template","0","0.026900000171735883","1","yes","1024"
"0","0","0.02675000017916318","0.02675000017916318","white","yes","psycho","psycho","psycho","0","uniform","0","undefined","0","a","1","0","1","0","0","0","0","0","0","NA","1","0","1","1","0","1","0","1","1","Tue Dec  5 17:21:14 2023","A template containing a practice and an experimental phase","yes","TalkFile_언어학과심리실험_B조_기말과제용심리실험.osexp.osexp","C:\Users\rober\OneDrive\Documents\Downloads","no","mono","no","18","no","black","no","yes","768","psycho","1","1","0","C:/Users/rober/OneDrive/바탕 화면/subject-1.csv","psycho","Lentiform Loewenfeld","3.3.14","yes","모니터","artifactual","same phoneme","0","None","NA","NA","NA","a","None","a","0.026600000186590478","NA","NA","NA","125830.62359999986","0.026600000186590478","1011.0850000001083","2","psycho","1024","2","48000","-16","experiment","1","odd","모터","artifactual","NA","156604.51699999976","152607.49859999988","152607.2277999997","NA","NA","26661.1998999997","NA","NA","155888.77299999967","26773.295999999846","157722.04599999986","157722.22109999985","152606.30459999992","156098.28019999986","NA","156710.2636999998","155879.77709999995","Extended template","0","0.05350000035832636","2","yes","1024"
"0","0","0.026833333463097613","0.026833333463097613","white","yes","psycho","psycho","psycho","0","uniform","0","undefined","0","n","1","0","2","0","0","0","0","0","0","NA","2","0","2","2","0","2","0","2","2","Tue Dec  5 17:21:14 2023","A template containing a practice and an experimental phase","yes","TalkFile_언어학과심리실험_B조_기말과제용심리실험.osexp.osexp","C:\Users\rober\OneDrive\Documents\Downloads","no","mono","no","18","no","black","no","yes","768","psycho","2","2","0","C:/Users/rober/OneDrive/바탕 화면/subject-1.csv","psycho","Lentiform Loewenfeld","3.3.14","yes","태양","natural","same phoneme","0","None","NA","NA","NA","a","None","n","0.027000000030966476","NA","NA","NA","125830.62359999986","0.027000000030966476","1508.2747000001254","2","psycho","1024","2","48000","-16","experiment","1","odd","태풍","natural","NA","158583.1877999999","152607.49859999988","152607.2277999997","NA","NA","26661.1998999997","NA","NA","157869.53330000007","26773.295999999846","160198.11059999984","160198.29690000007","152606.30459999992","158078.24389999997","NA","158689.0497999998","157860.3734999997","Extended template","0","0.08050000038929284","3","yes","1024"
"0","0","0.027000000030966476","0.027000000030966476","white","yes","psycho","psycho","psycho","0","uniform","0","undefined","0","n","1","0","3","1","1","0","0","0","0","NA","3","0","3","3","0","3","1","3","3","Tue Dec  5 17:21:14 2023","A template containing a practice and an experimental phase","yes","TalkFile_언어학과심리실험_B조_기말과제용심리실험.osexp.osexp","C:\Users\rober\OneDrive\Documents\Downloads","no","mono","no","18","no","black","no","yes","768","psycho","0","0","0","C:/Users/rober/OneDrive/바탕 화면/subject-1.csv","psycho","Lentiform Loewenfeld","3.3.14","no","풍차","artifactual","no-correlation","0","None","NA","a","NA","a","None","n","0.027000000030966476","NA","2531.080300000205","NA","125830.62359999986","0.027000000030966476","1033.1847000002163","2","psycho","1024","2","48000","-16","experiment","1","odd","흙","natural","NA","163655.66979999995","162848.4762999997","162848.36939999968","NA","160315.4980999998","26661.1998999997","162847.23259999964","NA","162942.60859999986","26773.295999999846","164795.09109999982","164795.27719999987","152606.30459999992","163150.5674","NA","163761.1754999998","162933.3131999997","Extended template","0","0.027000000030966476","1","yes","1024"
"0","0","0.028449999939766712","0.028449999939766712","white","yes","psycho","psycho","psycho","0","uniform","0","undefined","0","a","1","0","4","1","1","0","0","0","0","NA","4","0","4","4","0","4","1","4","4","Tue Dec  5 17:21:14 2023","A template containing a practice and an experimental phase","yes","TalkFile_언어학과심리실험_B조_기말과제용심리실험.osexp.osexp","C:\Users\rober\OneDrive\Documents\Downloads","no","mono","no","18","no","black","no","yes","768","psycho","1","1","0","C:/Users/rober/OneDrive/바탕 화면/subject-1.csv","psycho","Lentiform Loewenfeld","3.3.14","no","구름","natural","same phoneme","0","None","NA","a","NA","a","None","a","0.02989999984856695","NA","2531.080300000205","NA","125830.62359999986","0.02989999984856695","2893.5268000000215","2","psycho","1024","2","48000","-16","experiment","1","odd","구슬","artifactual","NA","165655.82429999995","162848.4762999997","162848.36939999968","NA","160315.4980999998","26661.1998999997","162847.23259999964","NA","164941.83229999998","26773.295999999846","168656.5642999999","168656.77509999977","152606.30459999992","165150.10789999997","NA","165762.20779999995","164933.47349999976","Extended template","0","0.056899999879533425","2","yes","1024"
"0","0","0.02816666664633279","0.02816666664633279","white","yes","psycho","psycho","psycho","0","uniform","0","undefined","0","a","1","0","5","1","1","0","0","0","0","NA","5","0","5","5","0","5","1","5","5","Tue Dec  5 17:21:14 2023","A template containing a practice and an experimental phase","yes","TalkFile_언어학과심리실험_B조_기말과제용심리실험.osexp.osexp","C:\Users\rober\OneDrive\Documents\Downloads","no","mono","no","18","no","black","no","yes","768","psycho","2","2","0","C:/Users/rober/OneDrive/바탕 화면/subject-1.csv","psycho","Lentiform Loewenfeld","3.3.14","no","종이","artifactual","similar-environmental","0","None","NA","a","NA","a","None","a","0.027600000059464946","NA","2531.080300000205","NA","125830.62359999986","0.027600000059464946","938.738800000021","2","psycho","1024","2","48000","-16","experiment","1","odd","프린터","artifactual","NA","169544.37999999983","162848.4762999997","162848.36939999968","NA","160315.4980999998","26661.1998999997","162847.23259999964","NA","168830.57710000002","26773.295999999846","170590.3645999997","170590.56439999994","152606.30459999992","169038.76779999974","NA","169650.90389999977","168819.75079999983","Extended template","0","0.08449999993899837","3","yes","1024"
"0","0","0.027949999886914156","0.027949999886914156","white","yes","psycho","psycho","psycho","0","uniform","0","undefined","0","a","1","0","6","1","1","0","0","0","0","NA","6","0","6","6","0","6","1","6","6","Tue Dec  5 17:21:14 2023","A template containing a practice and an experimental phase","yes","TalkFile_언어학과심리실험_B조_기말과제용심리실험.osexp.osexp","C:\Users\rober\OneDrive\Documents\Downloads","no","mono","no","18","no","black","no","yes","768","psycho","3","3","0","C:/Users/rober/OneDrive/바탕 화면/subject-1.csv","psycho","Lentiform Loewenfeld","3.3.14","no","가방","artifactual","no-correlation","0","None","NA","a","NA","a","None","a","0.027299999608658254","NA","2531.080300000205","NA","125830.62359999986","0.027299999608658254","949.9522000001161","2","psycho","1024","2","48000","-16","experiment","1","odd","기차","artifactual","NA","171455.18360000005","162848.4762999997","162848.36939999968","NA","160315.4980999998","26661.1998999997","162847.23259999964","NA","170739.81449999975","26773.295999999846","172512.19020000007","172512.39769999983","152606.30459999992","170949.8577999998","NA","171561.48779999965","170731.31590000002","Extended template","0","0.11179999954765663","4","yes","1024"
"0","0","0.028339999879244716","0.028339999879244716","white","yes","psycho","psycho","psycho","0","uniform","0","undefined","0","n","1","0","7","1","1","0","0","0","0","NA","7","0","7","7","0","7","1","7","7","Tue Dec  5 17:21:14 2023","A template containing a practice and an experimental phase","yes","TalkFile_언어학과심리실험_B조_기말과제용심리실험.osexp.osexp","C:\Users\rober\OneDrive\Documents\Downloads","no","mono","no","18","no","black","no","yes","768","psycho","4","4","0","C:/Users/rober/OneDrive/바탕 화면/subject-1.csv","psycho","Lentiform Loewenfeld","3.3.14","no","달력","artifactual","same phoneme","0","None","NA","a","NA","a","None","n","0.02989999984856695","NA","2531.080300000205","NA","125830.62359999986","0.02989999984856695","743.6791000000085","2","psycho","1024","2","48000","-16","experiment","1","odd","달","natural","NA","173368.50920000006","162848.4762999997","162848.36939999968","NA","160315.4980999998","26661.1998999997","162847.23259999964","NA","172654.41340000008","26773.295999999846","174218.6084","174218.8490999997","152606.30459999992","172862.82519999985","NA","173474.08829999994","172646.21820000003","Extended template","0","0.14169999939622357","5","yes","1024"
"0","0","0.04224999990159025","0.04224999990159025","white","yes","psycho","psycho","psycho","0","uniform","0","undefined","0","n","1","0","8","1","1","0","0","0","0","NA","8","0","8","8","0","8","1","8","8","Tue Dec  5 17:21:14 2023","A template containing a practice and an experimental phase","yes","TalkFile_언어학과심리실험_B조_기말과제용심리실험.osexp.osexp","C:\Users\rober\OneDrive\Documents\Downloads","no","mono","no","18","no","black","no","yes","768","psycho","5","5","0","C:/Users/rober/OneDrive/바탕 화면/subject-1.csv","psycho","Lentiform Loewenfeld","3.3.14","no","악어","natural","similar-environmental","0","None","NA","a","NA","a","None","n","0.11180000001331791","NA","2531.080300000205","NA","125830.62359999986","0.11180000001331791","929.9068999998854","2","psycho","1024","2","48000","-16","experiment","1","odd","늪","natural","NA","175074.6856999999","162848.4762999997","162848.36939999968","NA","160315.4980999998","26661.1998999997","162847.23259999964","NA","174360.8678999999","26773.295999999846","176114.85459999993","176116.02429999993","152606.30459999992","174568.77140000006","NA","175180.91400000002","174352.92479999998","Extended template","0","0.2534999994095415","6","yes","1024"
"0","0","0.04289999989227259","0.04289999989227259","white","yes","psycho","psycho","psycho","0","uniform","0","undefined","0","a","1","0","9","1","1","0","0","0","0","NA","9","0","9","9","0","9","1","9","9","Tue Dec  5 17:21:14 2023","A template containing a practice and an experimental phase","yes","TalkFile_언어학과심리실험_B조_기말과제용심리실험.osexp.osexp","C:\Users\rober\OneDrive\Documents\Downloads","no","mono","no","18","no","black","no","yes","768","psycho","6","6","0","C:/Users/rober/OneDrive/바탕 화면/subject-1.csv","psycho","Lentiform Loewenfeld","3.3.14","no","교통","artifactual","inclusive","0","None","NA","a","NA","a","None","a","0.046799999836366624","NA","2531.080300000205","NA","125830.62359999986","0.046799999836366624","1419.02019999997","2","psycho","1024","2","48000","-16","experiment","1","odd","자동차","artifactual","NA","177020.35769999976","162848.4762999997","162848.36939999968","NA","160315.4980999998","26661.1998999997","162847.23259999964","NA","176307.26419999974","26773.295999999846","178549.35509999996","178549.68069999997","152606.30459999992","176515.6727999997","NA","177128.24749999982","176298.3122999999","Extended template","0","0.3002999992459081","7","yes","1024"
"0","0","0.044787499915400986","0.044787499915400986","white","yes","psycho","psycho","psycho","0","uniform","0","undefined","0","a","1","0","10","1","1","0","0","0","0","NA","10","0","10","10","0","10","1","10","10","Tue Dec  5 17:21:14 2023","A template containing a practice and an experimental phase","yes","TalkFile_언어학과심리실험_B조_기말과제용심리실험.osexp.osexp","C:\Users\rober\OneDrive\Documents\Downloads","no","mono","no","18","no","black","no","yes","768","psycho","7","7","0","C:/Users/rober/OneDrive/바탕 화면/subject-1.csv","psycho","Lentiform Loewenfeld","3.3.14","no","눈","natural","similar-environmental","0","None","NA","a","NA","a","None","a","0.058000000077299774","NA","2531.080300000205","NA","125830.62359999986","0.058000000077299774","728.4280999997573","2","psycho","1024","2","48000","-16","experiment","1","odd","스키","artifactual","NA","179404.21149999974","162848.4762999997","162848.36939999968","NA","160315.4980999998","26661.1998999997","162847.23259999964","NA","178688.91349999967","26773.295999999846","180239.2749999999","180239.77829999966","152606.30459999992","178897.31809999965","NA","179510.00840000005","178680.9218999997","Extended template","0","0.3582999993232079","8","yes","1024"
"0","0","0.04276666661219982","0.04276666661219982","white","yes","psycho","psycho","psycho","0","uniform","0","undefined","0","a","1","0","11","1","1","0","0","0","0","NA","11","0","11","11","0","11","1","11","11","Tue Dec  5 17:21:14 2023","A template containing a practice and an experimental phase","yes","TalkFile_언어학과심리실험_B조_기말과제용심리실험.osexp.osexp","C:\Users\rober\OneDrive\Documents\Downloads","no","mono","no","18","no","black","no","yes","768","psycho","8","8","0","C:/Users/rober/OneDrive/바탕 화면/subject-1.csv","psycho","Lentiform Loewenfeld","3.3.14","no","불","natural","similar-environmental","0","None","NA","a","NA","a","None","a","0.026600000186590478","NA","2531.080300000205","NA","125830.62359999986","0.026600000186590478","534.7242000002589","2","psycho","1024","2","48000","-16","experiment","1","odd","소화기","artifactual","NA","181095.76979999975","162848.4762999997","162848.36939999968","NA","160315.4980999998","26661.1998999997","162847.23259999964","NA","180382.53799999983","26773.295999999846","181737.09919999965","181737.35140000007","152606.30459999992","180590.8890999999","NA","181201.54939999976","180373.1929999999","Extended template","0","0.38489999950979836","9","yes","1024"
"0","0","0.041369999962626025","0.041369999962626025","white","yes","psycho","psycho","psycho","0","uniform","0","undefined","0","a","1","0","12","1","1","0","0","0","0","NA","12","0","12","12","0","12","1","12","12","Tue Dec  5 17:21:14 2023","A template containing a practice and an experimental phase","yes","TalkFile_언어학과심리실험_B조_기말과제용심리실험.osexp.osexp","C:\Users\rober\OneDrive\Documents\Downloads","no","mono","no","18","no","black","no","yes","768","psycho","9","9","0","C:/Users/rober/OneDrive/바탕 화면/subject-1.csv","psycho","Lentiform Loewenfeld","3.3.14","no","경주","artifactual","no-correlation","0","None","NA","a","NA","a","None","a","0.028800000116461888","NA","2531.080300000205","NA","125830.62359999986","0.028800000116461888","605.9083000000101","2","psycho","1024","2","48000","-16","experiment","1","odd","버스","artifactual","NA","182608.66739999983","162848.4762999997","162848.36939999968","NA","160315.4980999998","26661.1998999997","162847.23259999964","NA","181894.87879999977","26773.295999999846","183320.74809999994","183321.02899999972","152606.30459999992","182102.79979999995","NA","182713.99299999984","181885.5101999998","Extended template","0","0.41369999962626025","10","yes","1024"
"0","0","0.04067272724932991","0.04067272724932991","white","yes","psycho","psycho","psycho","0","uniform","0","undefined","0","n","0","0","13","1","1","0","0","0","0","NA","13","0","13","13","0","13","1","13","13","Tue Dec  5 17:21:14 2023","A template containing a practice and an experimental phase","yes","TalkFile_언어학과심리실험_B조_기말과제용심리실험.osexp.osexp","C:\Users\rober\OneDrive\Documents\Downloads","no","mono","no","18","no","black","no","yes","768","psycho","10","10","0","C:/Users/rober/OneDrive/바탕 화면/subject-1.csv","psycho","Lentiform Loewenfeld","3.3.14","no","태양계","natural","inclusive","0","None","NA","a","NA","a","None","a","0.033700000116368756","NA","2531.080300000205","NA","125830.62359999986","0.033700000116368756","660.0155000000959","2","psycho","1024","2","48000","-16","experiment","1","odd","목성","natural","NA","184174.5308999998","162848.4762999997","162848.36939999968","NA","160315.4980999998","26661.1998999997","162847.23259999964","NA","183461.3148999997","26773.295999999846","184941.84399999995","184942.1199999997","152606.30459999992","183669.3003999999","NA","184280.8998999999","183451.36129999993","Extended template","0","0.447399999742629","11","yes","1024"
"0","0","0.039925000009437404","0.039925000009437404","white","yes","psycho","psycho","psycho","0","uniform","0","undefined","0","a","1","0","14","1","1","0","0","0","0","NA","14","0","14","14","0","14","1","14","14","Tue Dec  5 17:21:14 2023","A template containing a practice and an experimental phase","yes","TalkFile_언어학과심리실험_B조_기말과제용심리실험.osexp.osexp","C:\Users\rober\OneDrive\Documents\Downloads","no","mono","no","18","no","black","no","yes","768","psycho","11","11","0","C:/Users/rober/OneDrive/바탕 화면/subject-1.csv","psycho","Lentiform Loewenfeld","3.3.14","no","학적","artifactual","same phoneme","0","None","NA","a","NA","a","None","a","0.03170000037061982","NA","2531.080300000205","NA","125830.62359999986","0.03170000037061982","718.9017000000458","2","psycho","1024","2","48000","-16","experiment","1","odd","학술","artifactual","NA","185869.77359999993","162848.4762999997","162848.36939999968","NA","160315.4980999998","26661.1998999997","162847.23259999964","NA","185150.14459999974","26773.295999999846","186698.87029999972","186699.17559999975","152606.30459999992","185360.66459999984","NA","185979.0662999999","185137.6760999997","Extended template","0","0.4791000001132488","12","yes","1024"
"0","0","0.04247692308630436","0.04247692308630436","white","yes","psycho","psycho","psycho","0","uniform","0","undefined","0","n","1","0","15","1","1","0","0","0","0","NA","15","0","15","15","0","15","1","15","15","Tue Dec  5 17:21:14 2023","A template containing a practice and an experimental phase","yes","TalkFile_언어학과심리실험_B조_기말과제용심리실험.osexp.osexp","C:\Users\rober\OneDrive\Documents\Downloads","no","mono","no","18","no","black","no","yes","768","psycho","12","12","0","C:/Users/rober/OneDrive/바탕 화면/subject-1.csv","psycho","Lentiform Loewenfeld","3.3.14","no","다리","artifactual","similar-environmental","0","None","NA","a","NA","a","None","n","0.07310000000870787","NA","2531.080300000205","NA","125830.62359999986","0.07310000000870787","971.4087000002328","2","psycho","1024","2","48000","-16","experiment","1","odd","강","natural","NA","187661.28909999997","162848.4762999997","162848.36939999968","NA","160315.4980999998","26661.1998999997","162847.23259999964","NA","186936.1114999997","26773.295999999846","188743.68090000006","188744.93749999965","152606.30459999992","187151.92509999996","NA","187769.66169999968","186920.65739999997","Extended template","0","0.5522000001219567","13","yes","1024"
"0","0","0.04675000003979741","0.04675000003979741","white","yes","psycho","psycho","psycho","0","uniform","0","undefined","0","n","1","0","16","1","1","0","0","0","0","NA","16","0","16","16","0","16","1","16","16","Tue Dec  5 17:21:14 2023","A template containing a practice and an experimental phase","yes","TalkFile_언어학과심리실험_B조_기말과제용심리실험.osexp.osexp","C:\Users\rober\OneDrive\Documents\Downloads","no","mono","no","18","no","black","no","yes","768","psycho","13","13","0","C:/Users/rober/OneDrive/바탕 화면/subject-1.csv","psycho","Lentiform Loewenfeld","3.3.14","no","꽃","natural","inclusive","0","None","NA","a","NA","a","None","n","0.10230000043520704","NA","2531.080300000205","NA","125830.62359999986","0.10230000043520704","799.8476000002411","2","psycho","1024","2","48000","-16","experiment","1","odd","해바라기","natural","NA","189716.06530000007","162848.4762999997","162848.36939999968","NA","160315.4980999998","26661.1998999997","162847.23259999964","NA","188994.9174999997","26773.295999999846","190626.96979999964","190628.24699999965","152606.30459999992","189208.45009999993","NA","189824.8768999997","188980.98469999968","Extended template","0","0.6545000005571637","14","yes","1024"
"0","0","0.0505666667149247","0.0505666667149247","white","yes","psycho","psycho","psycho","0","uniform","0","undefined","0","a","1","0","17","1","1","0","0","0","0","NA","17","0","17","17","0","17","1","17","17","Tue Dec  5 17:21:14 2023","A template containing a practice and an experimental phase","yes","TalkFile_언어학과심리실험_B조_기말과제용심리실험.osexp.osexp","C:\Users\rober\OneDrive\Documents\Downloads","no","mono","no","18","no","black","no","yes","768","psycho","14","14","0","C:/Users/rober/OneDrive/바탕 화면/subject-1.csv","psycho","Lentiform Loewenfeld","3.3.14","no","호수","natural","no-correlation","0","None","NA","a","NA","a","None","a","0.10400000016670674","NA","2531.080300000205","NA","125830.62359999986","0.10400000016670674","1110.9935000004189","2","psycho","1024","2","48000","-16","experiment","1","odd","화장실","artifactual","NA","191607.92139999967","162848.4762999997","162848.36939999968","NA","160315.4980999998","26661.1998999997","162847.23259999964","NA","190887.77049999998","26773.295999999846","192828.42589999974","192829.93790000002","152606.30459999992","191099.45519999973","NA","191714.93119999967","190873.96549999993","Extended template","0","0.7585000007238705","15","yes","1024"
"0","0","0.05412500004604226","0.05412500004604226","white","yes","psycho","psycho","psycho","0","uniform","0","undefined","0","n","1","0","18","1","1","0","0","0","0","NA","18","0","18","18","0","18","1","18","18","Tue Dec  5 17:21:14 2023","A template containing a practice and an experimental phase","yes","TalkFile_언어학과심리실험_B조_기말과제용심리실험.osexp.osexp","C:\Users\rober\OneDrive\Documents\Downloads","no","mono","no","18","no","black","no","yes","768","psycho","15","15","0","C:/Users/rober/OneDrive/바탕 화면/subject-1.csv","psycho","Lentiform Loewenfeld","3.3.14","no","물고기","natural","inclusive","0","None","NA","a","NA","a","None","n","0.10750000001280569","NA","2531.080300000205","NA","125830.62359999986","0.10750000001280569","697.5059999999648","2","psycho","1024","2","48000","-16","experiment","1","odd","연어","natural","NA","193777.63490000006","162848.4762999997","162848.36939999968","NA","160315.4980999998","26661.1998999997","162847.23259999964","NA","193059.7555999998","26773.295999999846","194584.3362999999","194585.3179999999","152606.30459999992","193271.84589999978","NA","193885.4821","193042.6582","Extended template","0","0.8660000007366762","16","yes","1024"
"0","0","0.05733529416508699","0.05733529416508699","white","yes","psycho","psycho","psycho","0","uniform","0","undefined","0","n","1","0","19","1","1","0","0","0","0","NA","19","0","19","19","0","19","1","19","19","Tue Dec  5 17:21:14 2023","A template containing a practice and an experimental phase","yes","TalkFile_언어학과심리실험_B조_기말과제용심리실험.osexp.osexp","C:\Users\rober\OneDrive\Documents\Downloads","no","mono","no","18","no","black","no","yes","768","psycho","16","16","0","C:/Users/rober/OneDrive/바탕 화면/subject-1.csv","psycho","Lentiform Loewenfeld","3.3.14","no","항구","artifactual","similar-environmental","0","None","NA","a","NA","a","None","n","0.10870000006980263","NA","2531.080300000205","NA","125830.62359999986","0.10870000006980263","1282.9692000000214","2","psycho","1024","2","48000","-16","experiment","1","odd","바다","natural","NA","195552.69309999995","162848.4762999997","162848.36939999968","NA","160315.4980999998","26661.1998999997","162847.23259999964","NA","194831.33829999997","26773.295999999846","196947.07119999974","196948.85329999987","152606.30459999992","195044.13109999997","NA","195661.46419999996","194819.24029999983","Extended template","0","0.9747000008064788","17","yes","1024"
"0","0","0.05598888894019183","0.05598888894019183","white","yes","psycho","psycho","psycho","0","uniform","0","undefined","0","a","1","0","20","1","1","0","0","0","0","NA","20","0","20","20","0","20","1","20","20","Tue Dec  5 17:21:14 2023","A template containing a practice and an experimental phase","yes","TalkFile_언어학과심리실험_B조_기말과제용심리실험.osexp.osexp","C:\Users\rober\OneDrive\Documents\Downloads","no","mono","no","18","no","black","no","yes","768","psycho","17","17","0","C:/Users/rober/OneDrive/바탕 화면/subject-1.csv","psycho","Lentiform Loewenfeld","3.3.14","no","플피","non-word","non-word","0","None","NA","a","NA","a","None","a","0.033100000116974115","NA","2531.080300000205","NA","125830.62359999986","0.033100000116974115","896.537800000282","2","psycho","1024","2","48000","-16","experiment","1","odd","책상","artifactual","NA","197915.45309999993","162848.4762999997","162848.36939999968","NA","160315.4980999998","26661.1998999997","162847.23259999964","NA","197194.5775999998","26773.295999999846","198921.4370999998","198921.81439999968","152606.30459999992","197408.27309999987","NA","198023.13509999975","197183.75719999993","Extended template","0","1.007800000923453","18","yes","1024"
"0","0","0.05472631583382424","0.05472631583382424","white","yes","psycho","psycho","psycho","0","uniform","0","undefined","0","a","1","0","21","1","1","0","0","0","0","NA","21","0","21","21","0","21","1","21","21","Tue Dec  5 17:21:14 2023","A template containing a practice and an experimental phase","yes","TalkFile_언어학과심리실험_B조_기말과제용심리실험.osexp.osexp","C:\Users\rober\OneDrive\Documents\Downloads","no","mono","no","18","no","black","no","yes","768","psycho","18","18","0","C:/Users/rober/OneDrive/바탕 화면/subject-1.csv","psycho","Lentiform Loewenfeld","3.3.14","no","호수","natural","no-correlation","0","None","NA","a","NA","a","None","a","0.03199999991920777","NA","2531.080300000205","NA","125830.62359999986","0.03199999991920777","583.1130000001576","2","psycho","1024","2","48000","-16","experiment","1","odd","대학교","artifactual","NA","199833.58109999972","162848.4762999997","162848.36939999968","NA","160315.4980999998","26661.1998999997","162847.23259999964","NA","199118.39489999966","26773.295999999846","200526.47320000007","200526.8532","152606.30459999992","199327.42359999975","NA","199942.40929999977","199109.35560000007","Extended template","0","1.0398000008426607","19","yes","1024"
"0","0","0.05385000004025642","0.05385000004025642","white","yes","psycho","psycho","psycho","0","uniform","0","undefined","0","n","0","0","22","1","1","0","0","0","0","NA","22","0","22","22","0","22","1","22","22","Tue Dec  5 17:21:14 2023","A template containing a practice and an experimental phase","yes","TalkFile_언어학과심리실험_B조_기말과제용심리실험.osexp.osexp","C:\Users\rober\OneDrive\Documents\Downloads","no","mono","no","18","no","black","no","yes","768","psycho","19","19","0","C:/Users/rober/OneDrive/바탕 화면/subject-1.csv","psycho","Lentiform Loewenfeld","3.3.14","no","불","natural","no-correlation","0","None","NA","a","NA","a","None","a","0.0371999999624677","NA","2531.080300000205","NA","125830.62359999986","0.0371999999624677","547.3826000002155","2","psycho","1024","2","48000","-16","experiment","1","odd","바위","natural","NA","201464.06959999967","162848.4762999997","162848.36939999968","NA","160315.4980999998","26661.1998999997","162847.23259999964","NA","200748.19499999966","26773.295999999846","202118.9147","202119.57379999966","152606.30459999992","200958.38989999992","NA","201570.11449999982","200739.74739999993","Extended template","0","1.0770000008051284","20","yes","1024"
"0","0","0.052771428597181855","0.052771428597181855","white","yes","psycho","psycho","psycho","0","uniform","0","undefined","0","a","1","0","23","1","1","0","0","0","0","NA","23","0","23","23","0","23","1","23","23","Tue Dec  5 17:21:14 2023","A template containing a practice and an experimental phase","yes","TalkFile_언어학과심리실험_B조_기말과제용심리실험.osexp.osexp","C:\Users\rober\OneDrive\Documents\Downloads","no","mono","no","18","no","black","no","yes","768","psycho","20","20","0","C:/Users/rober/OneDrive/바탕 화면/subject-1.csv","psycho","Lentiform Loewenfeld","3.3.14","no","소나무","natural","same phoneme","0","None","NA","a","NA","a","None","a","0.031199999735690653","NA","2531.080300000205","NA","125830.62359999986","0.031199999735690653","593.7238000001234","2","psycho","1024","2","48000","-16","experiment","1","odd","소방서","artifactual","NA","203017.61199999964","162848.4762999997","162848.36939999968","NA","160315.4980999998","26661.1998999997","162847.23259999964","NA","202303.02819999997","26773.295999999846","203723.98380000005","203724.38109999985","152606.30459999992","202512.59329999995","NA","203129.2362999998","202294.49559999967","Extended template","0","1.108200000540819","21","yes","1024"
"0","0","0.05188636367330963","0.05188636367330963","white","yes","psycho","psycho","psycho","0","uniform","0","undefined","0","n","1","0","24","1","1","0","0","0","0","NA","24","0","24","24","0","24","1","24","24","Tue Dec  5 17:21:14 2023","A template containing a practice and an experimental phase","yes","TalkFile_언어학과심리실험_B조_기말과제용심리실험.osexp.osexp","C:\Users\rober\OneDrive\Documents\Downloads","no","mono","no","18","no","black","no","yes","768","psycho","21","21","0","C:/Users/rober/OneDrive/바탕 화면/subject-1.csv","psycho","Lentiform Loewenfeld","3.3.14","no","우산","artifactual","similar-environmental","0","None","NA","a","NA","a","None","n","0.03330000027199276","NA","2531.080300000205","NA","125830.62359999986","0.03330000027199276","589.6950000001234","2","psycho","1024","2","48000","-16","experiment","1","odd","비","natural","NA","204602.97969999965","162848.4762999997","162848.36939999968","NA","160315.4980999998","26661.1998999997","162847.23259999964","NA","203888.58679999976","26773.295999999846","205299.6559999997","205300.36699999982","152606.30459999992","204096.68829999963","NA","204708.87559999982","203877.6533","Extended template","0","1.1415000008128118","22","yes","1024"
"0","0","0.051700000036204154","0.051700000036204154","white","yes","psycho","psycho","psycho","0","uniform","0","undefined","0","n","1","0","25","1","1","0","0","0","0","NA","25","0","25","25","0","25","1","25","25","Tue Dec  5 17:21:14 2023","A template containing a practice and an experimental phase","yes","TalkFile_언어학과심리실험_B조_기말과제용심리실험.osexp.osexp","C:\Users\rober\OneDrive\Documents\Downloads","no","mono","no","18","no","black","no","yes","768","psycho","22","22","0","C:/Users/rober/OneDrive/바탕 화면/subject-1.csv","psycho","Lentiform Loewenfeld","3.3.14","no","태양","natural","same phoneme","0","None","NA","a","NA","a","None","n","0.04760000001988374","NA","2531.080300000205","NA","125830.62359999986","0.04760000001988374","684.9189999998198","2","psycho","1024","2","48000","-16","experiment","1","odd","태풍","natural","NA","206167.34749999977","162848.4762999997","162848.36939999968","NA","160315.4980999998","26661.1998999997","162847.23259999964","NA","205452.35269999967","26773.295999999846","206960.69669999997","206961.5039","152606.30459999992","205660.59489999997","NA","206274.25559999983","205443.26569999976","Extended template","0","1.1891000008326955","23","yes","1024"
"0","0","0.051475000040227314","0.051475000040227314","white","yes","psycho","psycho","psycho","0","uniform","0","undefined","0","n","1","0","26","1","1","0","0","0","0","NA","26","0","26","26","0","26","1","26","26","Tue Dec  5 17:21:14 2023","A template containing a practice and an experimental phase","yes","TalkFile_언어학과심리실험_B조_기말과제용심리실험.osexp.osexp","C:\Users\rober\OneDrive\Documents\Downloads","no","mono","no","18","no","black","no","yes","768","psycho","23","23","0","C:/Users/rober/OneDrive/바탕 화면/subject-1.csv","psycho","Lentiform Loewenfeld","3.3.14","no","물고기","natural","no-correlation","0","None","NA","a","NA","a","None","n","0.04630000013276003","NA","2531.080300000205","NA","125830.62359999986","0.04630000013276003","763.6582000000053","2","psycho","1024","2","48000","-16","experiment","1","odd","밤하늘","natural","NA","207853.91649999973","162848.4762999997","162848.36939999968","NA","160315.4980999998","26661.1998999997","162847.23259999964","NA","207138.19319999992","26773.295999999846","208726.32539999994","208726.75859999983","152606.30459999992","207346.85409999973","NA","207961.46829999998","207126.0315999998","Extended template","0","1.2354000009654555","24","yes","1024"
"0","0","0.050740000043297186","0.050740000043297186","white","yes","psycho","psycho","psycho","0","uniform","0","undefined","0","n","1","0","27","1","1","0","0","0","0","NA","27","0","27","27","0","27","1","27","27","Tue Dec  5 17:21:14 2023","A template containing a practice and an experimental phase","yes","TalkFile_언어학과심리실험_B조_기말과제용심리실험.osexp.osexp","C:\Users\rober\OneDrive\Documents\Downloads","no","mono","no","18","no","black","no","yes","768","psycho","24","24","0","C:/Users/rober/OneDrive/바탕 화면/subject-1.csv","psycho","Lentiform Loewenfeld","3.3.14","no","해마","natural","same phoneme","0","None","NA","a","NA","a","None","n","0.033100000116974115","NA","2531.080300000205","NA","125830.62359999986","0.033100000116974115","741.2962999997253","2","psycho","1024","2","48000","-16","experiment","1","odd","해질녘","natural","NA","209614.75949999975","162848.4762999997","162848.36939999968","NA","160315.4980999998","26661.1998999997","162847.23259999964","NA","208899.79429999995","26773.295999999846","210464.9000999998","210465.55899999975","152606.30459999992","209108.68119999988","NA","209722.5426","208890.19710000002","Extended template","0","1.2685000010824297","25","yes","1024"
"0","0","0.049965384663664736","0.049965384663664736","white","yes","psycho","psycho","psycho","0","uniform","0","undefined","0","n","1","0","28","1","1","0","0","0","0","NA","28","0","28","28","0","28","1","28","28","Tue Dec  5 17:21:14 2023","A template containing a practice and an experimental phase","yes","TalkFile_언어학과심리실험_B조_기말과제용심리실험.osexp.osexp","C:\Users\rober\OneDrive\Documents\Downloads","no","mono","no","18","no","black","no","yes","768","psycho","25","25","0","C:/Users/rober/OneDrive/바탕 화면/subject-1.csv","psycho","Lentiform Loewenfeld","3.3.14","no","산","natural","similar-environmental","0","None","NA","a","NA","a","None","n","0.03060000017285347","NA","2531.080300000205","NA","125830.62359999986","0.03060000017285347","863.488200000138","2","psycho","1024","2","48000","-16","experiment","1","odd","계곡","natural","NA","211320.16429999977","162848.4762999997","162848.36939999968","NA","160315.4980999998","26661.1998999997","162847.23259999964","NA","210607.0448999999","26773.295999999846","212290.3260999997","212290.77770000004","152606.30459999992","210814.98569999984","NA","211425.77709999977","210597.70529999968","Extended template","0","1.2991000012552831","26","yes","1024"
"0","0","0.04937777782389377","0.04937777782389377","white","yes","psycho","psycho","psycho","0","uniform","0","undefined","0","a","1","0","29","1","1","0","0","0","0","NA","29","0","29","29","0","29","1","29","29","Tue Dec  5 17:21:14 2023","A template containing a practice and an experimental phase","yes","TalkFile_언어학과심리실험_B조_기말과제용심리실험.osexp.osexp","C:\Users\rober\OneDrive\Documents\Downloads","no","mono","no","18","no","black","no","yes","768","psycho","26","26","0","C:/Users/rober/OneDrive/바탕 화면/subject-1.csv","psycho","Lentiform Loewenfeld","3.3.14","no","컴퓨터","artifactual","similar-environmental","0","None","NA","a","NA","a","None","a","0.034099999989848584","NA","2531.080300000205","NA","125830.62359999986","0.034099999989848584","693.1273999998812","2","psycho","1024","2","48000","-16","experiment","1","odd","키보드","artifactual","NA","213145.41770000005","162848.4762999997","162848.36939999968","NA","160315.4980999998","26661.1998999997","162847.23259999964","NA","212431.32419999983","26773.295999999846","213945.96909999973","213946.4270999997","152606.30459999992","212638.79769999994","NA","213251.3015999998","212423.46009999982","Extended template","0","1.3332000012451317","27","yes","1024"
"0","0","0.048678571472659575","0.048678571472659575","white","yes","psycho","psycho","psycho","0","uniform","0","undefined","0","n","1","0","30","1","1","0","0","0","0","NA","30","0","30","30","0","30","1","30","30","Tue Dec  5 17:21:14 2023","A template containing a practice and an experimental phase","yes","TalkFile_언어학과심리실험_B조_기말과제용심리실험.osexp.osexp","C:\Users\rober\OneDrive\Documents\Downloads","no","mono","no","18","no","black","no","yes","768","psycho","27","27","0","C:/Users/rober/OneDrive/바탕 화면/subject-1.csv","psycho","Lentiform Loewenfeld","3.3.14","no","상새고","non-word","non-word","0","None","NA","a","NA","a","None","n","0.029799999989336357","NA","2531.080300000205","NA","125830.62359999986","0.029799999989336357","660.2232999998669","2","psycho","1024","2","48000","-16","experiment","1","odd","나뭇잎","natural","NA","214803.72709999984","162848.4762999997","162848.36939999968","NA","160315.4980999998","26661.1998999997","162847.23259999964","NA","214090.2090999998","26773.295999999846","215570.60219999994","215571.0366999997","152606.30459999992","214298.26129999993","NA","214909.3865","214081.47109999982","Extended template","0","1.363000001234468","28","yes","1024"
"0","0","0.048455172465263124","0.048455172465263124","white","yes","psycho","psycho","psycho","0","uniform","0","undefined","0","a","1","0","31","1","1","0","0","0","0","NA","31","0","31","31","0","31","1","31","31","Tue Dec  5 17:21:14 2023","A template containing a practice and an experimental phase","yes","TalkFile_언어학과심리실험_B조_기말과제용심리실험.osexp.osexp","C:\Users\rober\OneDrive\Documents\Downloads","no","mono","no","18","no","black","no","yes","768","psycho","28","28","0","C:/Users/rober/OneDrive/바탕 화면/subject-1.csv","psycho","Lentiform Loewenfeld","3.3.14","no","로켓","artifactual","same phoneme","0","None","NA","a","NA","a","None","a","0.04220000025816262","NA","2531.080300000205","NA","125830.62359999986","0.04220000025816262","781.3183999996982","2","psycho","1024","2","48000","-16","experiment","1","odd","로봇","artifactual","NA","216425.02479999984","162848.4762999997","162848.36939999968","NA","160315.4980999998","26661.1998999997","162847.23259999964","NA","215710.93470000004","26773.295999999846","217313.43279999966","217314.30319999982","152606.30459999992","215920.4007999997","NA","216530.88909999997","215702.8888","Extended template","0","1.4052000014926307","29","yes","1024"
"0","0","0.04851000004758437","0.04851000004758437","white","yes","psycho","psycho","psycho","0","uniform","0","undefined","0","n","1","0","32","1","1","0","0","0","0","NA","32","0","32","32","0","32","1","32","32","Tue Dec  5 17:21:14 2023","A template containing a practice and an experimental phase","yes","TalkFile_언어학과심리실험_B조_기말과제용심리실험.osexp.osexp","C:\Users\rober\OneDrive\Documents\Downloads","no","mono","no","18","no","black","no","yes","768","psycho","29","29","0","C:/Users/rober/OneDrive/바탕 화면/subject-1.csv","psycho","Lentiform Loewenfeld","3.3.14","no","늪","natural","similar-environmental","0","None","NA","a","NA","a","None","n","0.05009999993490055","NA","2531.080300000205","NA","125830.62359999986","0.05009999993490055","683.6189000000595","2","psycho","1024","2","48000","-16","experiment","1","odd","악어","natural","NA","218167.67489999984","162848.4762999997","162848.36939999968","NA","160315.4980999998","26661.1998999997","162847.23259999964","NA","217452.9005999998","26773.295999999846","218958.95599999995","218959.87280000007","152606.30459999992","217662.09419999996","NA","218273.6061999999","217444.13349999968","Extended template","0","1.4553000014275312","30","yes","1024"
"0","0","0.047996774237910884","0.047996774237910884","white","yes","psycho","psycho","psycho","0","uniform","0","undefined","0","x","1","0","33","1","1","0","0","0","0","NA","33","0","33","33","0","33","1","33","33","Tue Dec  5 17:21:14 2023","A template containing a practice and an experimental phase","yes","TalkFile_언어학과심리실험_B조_기말과제용심리실험.osexp.osexp","C:\Users\rober\OneDrive\Documents\Downloads","no","mono","no","18","no","black","no","yes","768","psycho","30","30","0","C:/Users/rober/OneDrive/바탕 화면/subject-1.csv","psycho","Lentiform Loewenfeld","3.3.14","no","냉장고","artifactual","non-word","0","None","NA","a","NA","a","None","x","0.03259999994770624","NA","2531.080300000205","NA","125830.62359999986","0.03259999994770624","1904.1348000000871","2","psycho","1024","2","48000","-16","experiment","1","odd","로방삭","non-word","NA","219817.91019999993","162848.4762999997","162848.36939999968","NA","160315.4980999998","26661.1998999997","162847.23259999964","NA","219102.86019999968","26773.295999999846","221829.03499999974","221829.52959999966","152606.30459999992","219310.63349999976","NA","219923.5079","219093.61330000003","Extended template","0","1.4879000013752375","31","yes","1024"
"0","0","0.047356250035591074","0.047356250035591074","white","yes","psycho","psycho","psycho","0","uniform","0","undefined","0","a","1","0","34","1","1","0","0","0","0","NA","34","0","34","34","0","34","1","34","34","Tue Dec  5 17:21:14 2023","A template containing a practice and an experimental phase","yes","TalkFile_언어학과심리실험_B조_기말과제용심리실험.osexp.osexp","C:\Users\rober\OneDrive\Documents\Downloads","no","mono","no","18","no","black","no","yes","768","psycho","31","31","0","C:/Users/rober/OneDrive/바탕 화면/subject-1.csv","psycho","Lentiform Loewenfeld","3.3.14","no","화분","artifactual","no-correlation","0","None","NA","a","NA","a","None","a","0.027499999763676897","NA","2531.080300000205","NA","125830.62359999986","0.027499999763676897","2670.916500000196","2","psycho","1024","2","48000","-16","experiment","1","odd","신발","artifactual","NA","222702.6520999998","162848.4762999997","162848.36939999968","NA","160315.4980999998","26661.1998999997","162847.23259999964","NA","221989.22909999965","26773.295999999846","225480.19780000005","225480.6540999998","152606.30459999992","222197.35509999964","NA","222808.2811999998","221976.5881999997","Extended template","0","1.5154000011389144","32","yes","1024"
"0","0","0.0469727273077958","0.0469727273077958","white","yes","psycho","psycho","psycho","0","uniform","0","undefined","0","a","1","0","35","1","1","0","0","0","0","NA","35","0","35","35","0","35","1","35","35","Tue Dec  5 17:21:14 2023","A template containing a practice and an experimental phase","yes","TalkFile_언어학과심리실험_B조_기말과제용심리실험.osexp.osexp","C:\Users\rober\OneDrive\Documents\Downloads","no","mono","no","18","no","black","no","yes","768","psycho","32","32","0","C:/Users/rober/OneDrive/바탕 화면/subject-1.csv","psycho","Lentiform Loewenfeld","3.3.14","no","선설수","non-word","non-word","0","None","NA","a","NA","a","None","a","0.034700000018347055","NA","2531.080300000205","NA","125830.62359999986","0.034700000018347055","805.8162000002048","2","psycho","1024","2","48000","-16","experiment","1","odd","시계","artifactual","NA","226337.66849999983","162848.4762999997","162848.36939999968","NA","160315.4980999998","26661.1998999997","162847.23259999964","NA","225623.20090000003","26773.295999999846","227250.4162","227250.98320000008","152606.30459999992","225832.55039999995","NA","226443.3463999999","225615.2781999999","Extended template","0","1.5501000011572614","33","yes","1024"
"0","0","0.04642352944424869","0.04642352944424869","white","yes","psycho","psycho","psycho","0","uniform","0","undefined","0","n","1","0","36","1","1","0","0","0","0","NA","36","0","36","36","0","36","1","36","36","Tue Dec  5 17:21:14 2023","A template containing a practice and an experimental phase","yes","TalkFile_언어학과심리실험_B조_기말과제용심리실험.osexp.osexp","C:\Users\rober\OneDrive\Documents\Downloads","no","mono","no","18","no","black","no","yes","768","psycho","33","33","0","C:/Users/rober/OneDrive/바탕 화면/subject-1.csv","psycho","Lentiform Loewenfeld","3.3.14","no","동굴","natural","similar-environmental","0","None","NA","a","NA","a","None","n","0.02829999994719401","NA","2531.080300000205","NA","125830.62359999986","0.02829999994719401","819.8365999996895","2","psycho","1024","2","48000","-16","experiment","1","odd","박쥐","natural","NA","228103.14329999982","162848.4762999997","162848.36939999968","NA","160315.4980999998","26661.1998999997","162847.23259999964","NA","227388.93409999993","26773.295999999846","229030.5917999999","229031.0626999999","152606.30459999992","227597.97059999983","NA","228209.65109999996","227381.0282999998","Extended template","0","1.5784000011044554","34","yes","1024"
"0","0","0.045868571461843595","0.045868571461843595","white","yes","psycho","psycho","psycho","0","uniform","0","undefined","0","n","1","0","37","1","1","0","0","0","0","NA","37","0","37","37","0","37","1","37","37","Tue Dec  5 17:21:14 2023","A template containing a practice and an experimental phase","yes","TalkFile_언어학과심리실험_B조_기말과제용심리실험.osexp.osexp","C:\Users\rober\OneDrive\Documents\Downloads","no","mono","no","18","no","black","no","yes","768","psycho","34","34","0","C:/Users/rober/OneDrive/바탕 화면/subject-1.csv","psycho","Lentiform Loewenfeld","3.3.14","no","호수","natural","same phoneme","0","None","NA","a","NA","a","None","n","0.027000000060070306","NA","2531.080300000205","NA","125830.62359999986","0.027000000060070306","602.3097000002163","2","psycho","1024","2","48000","-16","experiment","1","odd","호랑이","natural","NA","229886.5099999998","162848.4762999997","162848.36939999968","NA","160315.4980999998","26661.1998999997","162847.23259999964","NA","229172.39339999968","26773.295999999846","230595.44499999992","230595.9241999999","152606.30459999992","229381.84509999974","NA","229992.07639999985","229164.4941999998","Extended template","0","1.6054000011645257","35","yes","1024"
"0","0","0.04550555559075696","0.04550555559075696","white","yes","psycho","psycho","psycho","0","uniform","0","undefined","0","n","1","0","38","1","1","0","0","0","0","NA","38","0","38","38","0","38","1","38","38","Tue Dec  5 17:21:14 2023","A template containing a practice and an experimental phase","yes","TalkFile_언어학과심리실험_B조_기말과제용심리실험.osexp.osexp","C:\Users\rober\OneDrive\Documents\Downloads","no","mono","no","18","no","black","no","yes","768","psycho","35","35","0","C:/Users/rober/OneDrive/바탕 화면/subject-1.csv","psycho","Lentiform Loewenfeld","3.3.14","no","과일","natural","inclusive","0","None","NA","a","NA","a","None","n","0.03280000010272488","NA","2531.080300000205","NA","125830.62359999986","0.03280000010272488","1090.8147999998764","2","psycho","1024","2","48000","-16","experiment","1","odd","사과","natural","NA","231452.90579999983","162848.4762999997","162848.36939999968","NA","160315.4980999998","26661.1998999997","162847.23259999964","NA","230738.93580000004","26773.295999999846","232650.83619999996","232651.58399999974","152606.30459999992","230946.9866999998","NA","231558.58119999993","230727.6062000001","Extended template","0","1.6382000012672506","36","yes","1024"
"0","0","0.045186486524668196","0.045186486524668196","white","yes","psycho","psycho","psycho","0","uniform","0","undefined","0","n","1","0","39","1","1","0","0","0","0","NA","39","0","39","39","0","39","1","39","39","Tue Dec  5 17:21:14 2023","A template containing a practice and an experimental phase","yes","TalkFile_언어학과심리실험_B조_기말과제용심리실험.osexp.osexp","C:\Users\rober\OneDrive\Documents\Downloads","no","mono","no","18","no","black","no","yes","768","psycho","36","36","0","C:/Users/rober/OneDrive/바탕 화면/subject-1.csv","psycho","Lentiform Loewenfeld","3.3.14","no","세금","artifactual","same phoneme","0","None","NA","a","NA","a","None","n","0.033700000145472586","NA","2531.080300000205","NA","125830.62359999986","0.033700000145472586","845.9701000001514","2","psycho","1024","2","48000","-16","experiment","1","odd","세포","natural","NA","233504.48119999963","162848.4762999997","162848.36939999968","NA","160315.4980999998","26661.1998999997","162847.23259999964","NA","232790.86959999995","26773.295999999846","234458.0348999998","234458.58959999986","152606.30459999992","232998.74409999984","NA","233610.2931999999","232783.06539999993","Extended template","0","1.6719000014127232","37","yes","1024"
"0","0","0.04470789477559983","0.04470789477559983","white","yes","psycho","psycho","psycho","0","uniform","0","undefined","0","n","1","0","40","1","1","0","0","0","0","NA","40","0","40","40","0","40","1","40","40","Tue Dec  5 17:21:14 2023","A template containing a practice and an experimental phase","yes","TalkFile_언어학과심리실험_B조_기말과제용심리실험.osexp.osexp","C:\Users\rober\OneDrive\Documents\Downloads","no","mono","no","18","no","black","no","yes","768","psycho","37","37","0","C:/Users/rober/OneDrive/바탕 화면/subject-1.csv","psycho","Lentiform Loewenfeld","3.3.14","no","패딩","artifactual","similar-environmental","0","None","NA","a","NA","a","None","n","0.027000000060070306","NA","2531.080300000205","NA","125830.62359999986","0.027000000060070306","1297.0945999995747","2","psycho","1024","2","48000","-16","experiment","1","odd","겨울","natural","NA","235323.1072999997","162848.4762999997","162848.36939999968","NA","160315.4980999998","26661.1998999997","162847.23259999964","NA","234609.72159999982","26773.295999999846","236727.00859999986","236727.51539999992","152606.30459999992","234817.19669999985","NA","235428.8200000001","234601.37859999985","Extended template","0","1.6989000014727935","38","yes","1024"
"0","0","0.04430000004075014","0.04430000004075014","white","yes","psycho","psycho","psycho","0","uniform","0","undefined","0","a","1","0","41","1","1","0","0","0","0","NA","41","0","41","41","0","41","1","41","41","Tue Dec  5 17:21:14 2023","A template containing a practice and an experimental phase","yes","TalkFile_언어학과심리실험_B조_기말과제용심리실험.osexp.osexp","C:\Users\rober\OneDrive\Documents\Downloads","no","mono","no","18","no","black","no","yes","768","psycho","38","38","0","C:/Users/rober/OneDrive/바탕 화면/subject-1.csv","psycho","Lentiform Loewenfeld","3.3.14","no","과일","natural","no-correlation","0","None","NA","a","NA","a","None","a","0.028800000116461888","NA","2531.080300000205","NA","125830.62359999986","0.028800000116461888","1785.0564999998605","2","psycho","1024","2","48000","-16","experiment","1","odd","가방","artifactual","NA","237579.95119999986","162848.4762999997","162848.36939999968","NA","160315.4980999998","26661.1998999997","162847.23259999964","NA","236864.29369999995","26773.295999999846","239471.45499999987","239472.09999999995","152606.30459999992","237072.30339999977","NA","237685.27779999978","236855.79280000002","Extended template","0","1.7277000015892554","39","yes","1024"
"0","0","0.0439050000422867","0.0439050000422867","white","yes","psycho","psycho","psycho","0","uniform","0","undefined","0","a","1","0","42","1","1","0","0","0","0","NA","42","0","42","42","0","42","1","42","42","Tue Dec  5 17:21:14 2023","A template containing a practice and an experimental phase","yes","TalkFile_언어학과심리실험_B조_기말과제용심리실험.osexp.osexp","C:\Users\rober\OneDrive\Documents\Downloads","no","mono","no","18","no","black","no","yes","768","psycho","39","39","0","C:/Users/rober/OneDrive/바탕 화면/subject-1.csv","psycho","Lentiform Loewenfeld","3.3.14","no","모자","artifactual","no-correlation","0","None","NA","a","NA","a","None","a","0.028500000102212653","NA","2531.080300000205","NA","125830.62359999986","0.028500000102212653","1013.0689000002458","2","psycho","1024","2","48000","-16","experiment","1","odd","마우스","artifactual","NA","240328.80419999993","162848.4762999997","162848.36939999968","NA","160315.4980999998","26661.1998999997","162847.23259999964","NA","239614.57040000006","26773.295999999846","241449.75239999985","241450.30730000007","152606.30459999992","239822.63160000002","NA","240435.53399999972","239606.46339999995","Extended template","0","1.756200001691468","40","yes","1024"
"0","0","0.043582926871306146","0.043582926871306146","white","yes","psycho","psycho","psycho","0","uniform","0","undefined","0","a","0","0","43","1","1","0","0","0","0","NA","43","0","43","43","0","43","1","43","43","Tue Dec  5 17:21:14 2023","A template containing a practice and an experimental phase","yes","TalkFile_언어학과심리실험_B조_기말과제용심리실험.osexp.osexp","C:\Users\rober\OneDrive\Documents\Downloads","no","mono","no","18","no","black","no","yes","768","psycho","40","40","0","C:/Users/rober/OneDrive/바탕 화면/subject-1.csv","psycho","Lentiform Loewenfeld","3.3.14","no","전기","natural","similar-environmental","0","None","NA","a","NA","a","None","n","0.030700000032084063","NA","2531.080300000205","NA","125830.62359999986","0.030700000032084063","718.8913000000175","2","psycho","1024","2","48000","-16","experiment","1","odd","전선","artifactual","NA","242304.7182999999","162848.4762999997","162848.36939999968","NA","160315.4980999998","26661.1998999997","162847.23259999964","NA","241590.54990000004","26773.295999999846","243130.34719999996","243130.91959999973","152606.30459999992","241799.7255999999","NA","242410.24849999984","241581.89270000003","Extended template","0","1.7869000017235521","41","yes","1024"
"0","0","0.05302619051612315","0.05302619051612315","white","yes","psycho","psycho","psycho","0","uniform","0","undefined","0","a","0","0","44","1","1","0","0","0","0","NA","44","0","44","44","0","44","1","44","44","Tue Dec  5 17:21:14 2023","A template containing a practice and an experimental phase","yes","TalkFile_언어학과심리실험_B조_기말과제용심리실험.osexp.osexp","C:\Users\rober\OneDrive\Documents\Downloads","no","mono","no","18","no","black","no","yes","768","psycho","41","41","0","C:/Users/rober/OneDrive/바탕 화면/subject-1.csv","psycho","Lentiform Loewenfeld","3.3.14","no","바다","natural","same phoneme","0","None","NA","a","NA","a","None","n","0.44019999995362014","NA","2531.080300000205","NA","125830.62359999986","0.44019999995362014","595.5853000000352","2","psycho","1024","2","48000","-16","experiment","1","odd","바닥","artifactual","NA","243982.78929999968","162848.4762999997","162848.36939999968","NA","160315.4980999998","26661.1998999997","162847.23259999964","NA","243268.55609999984","26773.295999999846","244687.55529999998","244690.89319999967","152606.30459999992","243477.16760000004","NA","244088.3211999999","243260.42019999976","Extended template","0","2.2271000016771723","42","yes","1024"
"0","0","0.052646511672254176","0.052646511672254176","white","yes","psycho","psycho","psycho","0","uniform","0","undefined","0","n","1","0","45","1","1","0","0","0","0","NA","45","0","45","45","0","45","1","45","45","Tue Dec  5 17:21:14 2023","A template containing a practice and an experimental phase","yes","TalkFile_언어학과심리실험_B조_기말과제용심리실험.osexp.osexp","C:\Users\rober\OneDrive\Documents\Downloads","no","mono","no","18","no","black","no","yes","768","psycho","42","42","0","C:/Users/rober/OneDrive/바탕 화면/subject-1.csv","psycho","Lentiform Loewenfeld","3.3.14","no","새","natural","inclusive","0","None","NA","a","NA","a","None","n","0.03670000022975728","NA","2531.080300000205","NA","125830.62359999986","0.03670000022975728","844.2068999998155","2","psycho","1024","2","48000","-16","experiment","1","odd","까치","natural","NA","245572.44480000008","162848.4762999997","162848.36939999968","NA","160315.4980999998","26661.1998999997","162847.23259999964","NA","244859.35789999986","26773.295999999846","246524.56619999977","246525.21149999983","152606.30459999992","245067.47859999997","NA","245678.99669999996","244850.0122999999","Extended template","0","2.2638000019069295","43","yes","1024"
"0","0","0.052138636410580315","0.052138636410580315","white","yes","psycho","psycho","psycho","0","uniform","0","undefined","0","a","1","0","46","1","1","0","0","0","0","NA","46","0","46","46","0","46","1","46","46","Tue Dec  5 17:21:14 2023","A template containing a practice and an experimental phase","yes","TalkFile_언어학과심리실험_B조_기말과제용심리실험.osexp.osexp","C:\Users\rober\OneDrive\Documents\Downloads","no","mono","no","18","no","black","no","yes","768","psycho","43","43","0","C:/Users/rober/OneDrive/바탕 화면/subject-1.csv","psycho","Lentiform Loewenfeld","3.3.14","no","피자","artifactual","similar-environmental","0","None","NA","a","NA","a","None","a","0.030300000158604234","NA","2531.080300000205","NA","125830.62359999986","0.030300000158604234","1187.2049000003317","2","psycho","1024","2","48000","-16","experiment","1","odd","파스타","artifactual","NA","247379.53590000008","162848.4762999997","162848.36939999968","NA","160315.4980999998","26661.1998999997","162847.23259999964","NA","246664.47990000006","26773.295999999846","248673.79859999983","248674.36379999982","152606.30459999992","246874.40130000006","NA","247485.35109999965","246655.62150000007","Extended template","0","2.2941000020655338","44","yes","1024"
"0","0","0.05157333338025233","0.05157333338025233","white","yes","psycho","psycho","psycho","0","uniform","0","undefined","0","a","1","0","47","1","1","0","0","0","0","NA","47","0","47","47","0","47","1","47","47","Tue Dec  5 17:21:14 2023","A template containing a practice and an experimental phase","yes","TalkFile_언어학과심리실험_B조_기말과제용심리실험.osexp.osexp","C:\Users\rober\OneDrive\Documents\Downloads","no","mono","no","18","no","black","no","yes","768","psycho","44","44","0","C:/Users/rober/OneDrive/바탕 화면/subject-1.csv","psycho","Lentiform Loewenfeld","3.3.14","no","영화","artifactual","similar-environmental","0","None","NA","a","NA","a","None","a","0.02670000004582107","NA","2531.080300000205","NA","125830.62359999986","0.02670000004582107","1266.0237999998499","2","psycho","1024","2","48000","-16","experiment","1","odd","드라마","artifactual","NA","249527.0204999997","162848.4762999997","162848.36939999968","NA","160315.4980999998","26661.1998999997","162847.23259999964","NA","248813.91269999996","26773.295999999846","250899.58129999967","250900.14470000006","152606.30459999992","249022.06019999995","NA","249632.38219999993","248806.07370000007","Extended template","0","2.320800002111355","45","yes","1024"
"0","0","0.051128260912778584","0.051128260912778584","white","yes","psycho","psycho","psycho","0","uniform","0","undefined","0","a","1","0","48","1","1","0","0","0","0","NA","48","0","48","48","0","48","1","48","48","Tue Dec  5 17:21:14 2023","A template containing a practice and an experimental phase","yes","TalkFile_언어학과심리실험_B조_기말과제용심리실험.osexp.osexp","C:\Users\rober\OneDrive\Documents\Downloads","no","mono","no","18","no","black","no","yes","768","psycho","45","45","0","C:/Users/rober/OneDrive/바탕 화면/subject-1.csv","psycho","Lentiform Loewenfeld","3.3.14","no","프린터","artifactual","similar-environmental","0","None","NA","a","NA","a","None","a","0.03109999987646006","NA","2531.080300000205","NA","125830.62359999986","0.03109999987646006","991.6372999996529","2","psycho","1024","2","48000","-16","experiment","1","odd","종이","artifactual","NA","251760.45290000003","162848.4762999997","162848.36939999968","NA","160315.4980999998","26661.1998999997","162847.23259999964","NA","251042.234","26773.295999999846","252858.9665999998","252859.55710000006","152606.30459999992","251254.63179999997","NA","251866.10749999998","251032.91229999968","Extended template","0","2.351900001987815","46","yes","1024"
"0","0","0.0506914894076738","0.0506914894076738","white","yes","psycho","psycho","psycho","0","uniform","0","undefined","0","n","1","0","49","1","1","0","0","0","0","NA","49","0","49","49","0","49","1","49","49","Tue Dec  5 17:21:14 2023","A template containing a practice and an experimental phase","yes","TalkFile_언어학과심리실험_B조_기말과제용심리실험.osexp.osexp","C:\Users\rober\OneDrive\Documents\Downloads","no","mono","no","18","no","black","no","yes","768","psycho","46","46","0","C:/Users/rober/OneDrive/바탕 화면/subject-1.csv","psycho","Lentiform Loewenfeld","3.3.14","no","전구","artifactual","similar-environmental","0","None","NA","a","NA","a","None","n","0.03060000017285347","NA","2531.080300000205","NA","125830.62359999986","0.03060000017285347","728.2348999997193","2","psycho","1024","2","48000","-16","experiment","1","odd","빛","natural","NA","253718.0275999999","162848.4762999997","162848.36939999968","NA","160315.4980999998","26661.1998999997","162847.23259999964","NA","253003.14069999967","26773.295999999846","254553.4620999997","254554.08299999998","152606.30459999992","253212.69389999998","NA","253824.00929999995","252992.9874999998","Extended template","0","2.3825000021606684","47","yes","1024"
"0","0","0.050193750043035834","0.050193750043035834","white","yes","psycho","psycho","psycho","0","uniform","0","undefined","0","n","1","0","50","1","1","0","0","0","0","NA","50","0","50","50","0","50","1","50","50","Tue Dec  5 17:21:14 2023","A template containing a practice and an experimental phase","yes","TalkFile_언어학과심리실험_B조_기말과제용심리실험.osexp.osexp","C:\Users\rober\OneDrive\Documents\Downloads","no","mono","no","18","no","black","no","yes","768","psycho","47","47","0","C:/Users/rober/OneDrive/바탕 화면/subject-1.csv","psycho","Lentiform Loewenfeld","3.3.14","no","호랑이","natural","same phoneme","0","None","NA","a","NA","a","None","n","0.026799999905051664","NA","2531.080300000205","NA","125830.62359999986","0.026799999905051664","1314.1820999999181","2","psycho","1024","2","48000","-16","experiment","1","odd","호수","natural","NA","255406.58789999998","162848.4762999997","162848.36939999968","NA","160315.4980999998","26661.1998999997","162847.23259999964","NA","254693.03179999997","26773.295999999846","256827.81449999992","256828.42309999978","152606.30459999992","254901.32879999964","NA","255512.45029999973","254682.8317999998","Extended template","0","2.40930000206572","48","yes","1024"
"0","0","0.0497346939180493","0.0497346939180493","white","yes","psycho","psycho","psycho","0","uniform","0","undefined","0","a","1","0","51","1","1","0","0","0","0","NA","51","0","51","51","0","51","1","51","51","Tue Dec  5 17:21:14 2023","A template containing a practice and an experimental phase","yes","TalkFile_언어학과심리실험_B조_기말과제용심리실험.osexp.osexp","C:\Users\rober\OneDrive\Documents\Downloads","no","mono","no","18","no","black","no","yes","768","psycho","48","48","0","C:/Users/rober/OneDrive/바탕 화면/subject-1.csv","psycho","Lentiform Loewenfeld","3.3.14","no","카메라","artifactual","inclusive","0","None","NA","a","NA","a","None","a","0.02769999991869554","NA","2531.080300000205","NA","125830.62359999986","0.02769999991869554","1039.616999999911","2","psycho","1024","2","48000","-16","experiment","1","odd","렌즈","artifactual","NA","257687.27480000007","162848.4762999997","162848.36939999968","NA","160315.4980999998","26661.1998999997","162847.23259999964","NA","256974.1270999998","26773.295999999846","258833.46819999997","258834.08899999995","152606.30459999992","257181.5115999998","NA","257792.60999999996","256966.60900000005","Extended template","0","2.4370000019844156","49","yes","1024"
"0","0","0.04930600003863219","0.04930600003863219","white","yes","psycho","psycho","psycho","0","uniform","0","undefined","0","n","1","0","52","1","1","0","0","0","0","NA","52","0","52","52","0","52","1","52","52","Tue Dec  5 17:21:14 2023","A template containing a practice and an experimental phase","yes","TalkFile_언어학과심리실험_B조_기말과제용심리실험.osexp.osexp","C:\Users\rober\OneDrive\Documents\Downloads","no","mono","no","18","no","black","no","yes","768","psycho","49","49","0","C:/Users/rober/OneDrive/바탕 화면/subject-1.csv","psycho","Lentiform Loewenfeld","3.3.14","no","스노우보드","artifactual","no-correlation","0","None","NA","a","NA","a","None","n","0.02829999994719401","NA","2531.080300000205","NA","125830.62359999986","0.02829999994719401","747.6541999999317","2","psycho","1024","2","48000","-16","experiment","1","odd","소나무","natural","NA","259687.38359999997","162848.4762999997","162848.36939999968","NA","160315.4980999998","26661.1998999997","162847.23259999964","NA","258974.5235999999","26773.295999999846","260542.5326999998","260543.13950000005","152606.30459999992","259182.40079999986","NA","259793.7066999998","258966.41139999975","Extended template","0","2.4653000019316096","50","yes","1024"
"0","0","0.04889607846488099","0.04889607846488099","white","yes","psycho","psycho","psycho","0","uniform","0","undefined","0","n","1","0","53","1","1","0","0","0","0","NA","53","0","53","53","0","53","1","53","53","Tue Dec  5 17:21:14 2023","A template containing a practice and an experimental phase","yes","TalkFile_언어학과심리실험_B조_기말과제용심리실험.osexp.osexp","C:\Users\rober\OneDrive\Documents\Downloads","no","mono","no","18","no","black","no","yes","768","psycho","50","50","0","C:/Users/rober/OneDrive/바탕 화면/subject-1.csv","psycho","Lentiform Loewenfeld","3.3.14","no","보트","artifactual","same phoneme","0","None","NA","a","NA","a","None","n","0.028399999777320772","NA","2531.080300000205","NA","125830.62359999986","0.028399999777320772","605.6222999996098","2","psycho","1024","2","48000","-16","experiment","1","odd","보름달","natural","NA","261404.51429999984","162848.4762999997","162848.36939999968","NA","160315.4980999998","26661.1998999997","162847.23259999964","NA","260691.03909999967","26773.295999999846","262117.0244","262117.64519999997","152606.30459999992","260899.29099999974","NA","261510.20620000007","260681.10410000008","Extended template","0","2.4937000017089304","51","yes","1024"
"0","0","0.0487519231117823","0.0487519231117823","white","yes","psycho","psycho","psycho","0","uniform","0","undefined","0","a","1","0","54","1","1","0","0","0","0","NA","54","0","54","54","0","54","1","54","54","Tue Dec  5 17:21:14 2023","A template containing a practice and an experimental phase","yes","TalkFile_언어학과심리실험_B조_기말과제용심리실험.osexp.osexp","C:\Users\rober\OneDrive\Documents\Downloads","no","mono","no","18","no","black","no","yes","768","psycho","51","51","0","C:/Users/rober/OneDrive/바탕 화면/subject-1.csv","psycho","Lentiform Loewenfeld","3.3.14","no","성냥","artifactual","same phoneme","0","None","NA","a","NA","a","None","a","0.041400000103749335","NA","2531.080300000205","NA","125830.62359999986","0.041400000103749335","862.8796000002767","2","psycho","1024","2","48000","-16","experiment","1","odd","성적표","artifactual","NA","262970.99839999963","162848.4762999997","162848.36939999968","NA","160315.4980999998","26661.1998999997","162847.23259999964","NA","262257.26269999996","26773.295999999846","263941.4099999999","263942.5916999999","152606.30459999992","262465.0637999998","NA","263077.12319999974","262249.4625999998","Extended template","0","2.5351000018126797","52","yes","1024"
"0","0","0.04848301890778425","0.04848301890778425","white","yes","psycho","psycho","psycho","0","uniform","0","undefined","0","a","1","0","55","1","1","0","0","0","0","NA","55","0","55","55","0","55","1","55","55","Tue Dec  5 17:21:14 2023","A template containing a practice and an experimental phase","yes","TalkFile_언어학과심리실험_B조_기말과제용심리실험.osexp.osexp","C:\Users\rober\OneDrive\Documents\Downloads","no","mono","no","18","no","black","no","yes","768","psycho","52","52","0","C:/Users/rober/OneDrive/바탕 화면/subject-1.csv","psycho","Lentiform Loewenfeld","3.3.14","no","학교","artifactual","inclusive","0","None","NA","a","NA","a","None","a","0.03450000029988587","NA","2531.080300000205","NA","125830.62359999986","0.03450000029988587","723.6549999997951","2","psycho","1024","2","48000","-16","experiment","1","odd","학생","artifactual","NA","264806.8072999999","162848.4762999997","162848.36939999968","NA","160315.4980999998","26661.1998999997","162847.23259999964","NA","264092.9213999998","26773.295999999846","265637.84529999975","265638.5449999998","152606.30459999992","264301.5892999997","NA","264912.1762","264084.20449999993","Extended template","0","2.5696000021125656","53","yes","1024"
"0","0","0.04823518522284252","0.04823518522284252","white","yes","psycho","psycho","psycho","0","uniform","0","undefined","0","a","1","0","56","1","1","0","0","0","0","NA","56","0","56","56","0","56","1","56","56","Tue Dec  5 17:21:14 2023","A template containing a practice and an experimental phase","yes","TalkFile_언어학과심리실험_B조_기말과제용심리실험.osexp.osexp","C:\Users\rober\OneDrive\Documents\Downloads","no","mono","no","18","no","black","no","yes","768","psycho","53","53","0","C:/Users/rober/OneDrive/바탕 화면/subject-1.csv","psycho","Lentiform Loewenfeld","3.3.14","no","계곡","natural","no-correlation","0","None","NA","a","NA","a","None","a","0.03509999992093071","NA","2531.080300000205","NA","125830.62359999986","0.03509999992093071","826.7700999999652","2","psycho","1024","2","48000","-16","experiment","1","odd","화장실","artifactual","NA","266553.4104999997","162848.4762999997","162848.36939999968","NA","160315.4980999998","26661.1998999997","162847.23259999964","NA","265803.33040000004","26773.295999999846","267491.2466999999","267492.00279999967","152606.30459999992","266044.9275000001","NA","266663.11039999983","265794.4355999998","Extended template","0","2.6047000020334963","54","yes","1024"
"0","0","0.047914545494660905","0.047914545494660905","white","yes","psycho","psycho","psycho","0","uniform","0","undefined","0","a","1","0","57","1","1","0","0","0","0","NA","57","0","57","57","0","57","1","57","57","Tue Dec  5 17:21:14 2023","A template containing a practice and an experimental phase","yes","TalkFile_언어학과심리실험_B조_기말과제용심리실험.osexp.osexp","C:\Users\rober\OneDrive\Documents\Downloads","no","mono","no","18","no","black","no","yes","768","psycho","54","54","0","C:/Users/rober/OneDrive/바탕 화면/subject-1.csv","psycho","Lentiform Loewenfeld","3.3.14","no","건물","artifactual","inclusive","0","None","NA","a","NA","a","None","a","0.03060000017285347","NA","2531.080300000205","NA","125830.62359999986","0.03060000017285347","968.0956000002334","2","psycho","1024","2","48000","-16","experiment","1","odd","병원","artifactual","NA","268345.22190000006","162848.4762999997","162848.36939999968","NA","160315.4980999998","26661.1998999997","162847.23259999964","NA","267632.49689999974","26773.295999999846","269420.38539999974","269421.07609999995","152606.30459999992","267840.47280000005","NA","268450.97629999963","267623.8069000001","Extended template","0","2.6353000022063497","55","yes","1024"
"0","0","0.04794464290119192","0.04794464290119192","white","yes","psycho","psycho","psycho","0","uniform","0","undefined","0","n","1","0","58","1","1","0","0","0","0","NA","58","0","58","58","0","58","1","58","58","Tue Dec  5 17:21:14 2023","A template containing a practice and an experimental phase","yes","TalkFile_언어학과심리실험_B조_기말과제용심리실험.osexp.osexp","C:\Users\rober\OneDrive\Documents\Downloads","no","mono","no","18","no","black","no","yes","768","psycho","55","55","0","C:/Users/rober/OneDrive/바탕 화면/subject-1.csv","psycho","Lentiform Loewenfeld","3.3.14","no","곡물","natural","inclusive","0","None","NA","a","NA","a","None","n","0.04960000026039779","NA","2531.080300000205","NA","125830.62359999986","0.04960000026039779","796.9742000000551","2","psycho","1024","2","48000","-16","experiment","1","odd","밀","natural","NA","270272.7755000001","162848.4762999997","162848.36939999968","NA","160315.4980999998","26661.1998999997","162847.23259999964","NA","269556.53149999987","26773.295999999846","271176.97659999976","271177.93729999993","152606.30459999992","269765.13669999986","NA","270378.37659999967","269548.6459999997","Extended template","0","2.6849000024667475","56","yes","1024"
"0","0","0.0476175438997687","0.0476175438997687","white","yes","psycho","psycho","psycho","0","uniform","0","undefined","0","a","0","0","59","1","1","0","0","0","0","NA","59","0","59","59","0","59","1","59","59","Tue Dec  5 17:21:14 2023","A template containing a practice and an experimental phase","yes","TalkFile_언어학과심리실험_B조_기말과제용심리실험.osexp.osexp","C:\Users\rober\OneDrive\Documents\Downloads","no","mono","no","18","no","black","no","yes","768","psycho","56","56","0","C:/Users/rober/OneDrive/바탕 화면/subject-1.csv","psycho","Lentiform Loewenfeld","3.3.14","no","꽃","natural","no-correlation","0","None","NA","a","NA","a","None","n","0.02929999982006848","NA","2531.080300000205","NA","125830.62359999986","0.02929999982006848","3113.863499999745","2","psycho","1024","2","48000","-16","experiment","1","odd","경주","artifactual","NA","272050.7411999997","162848.4762999997","162848.36939999968","NA","160315.4980999998","26661.1998999997","162847.23259999964","NA","271336.66449999966","26773.295999999846","275271.45960000006","275272.16769999993","152606.30459999992","271545.3385999999","NA","272156.2583","271328.42219999974","Extended template","0","2.714200002286816","57","yes","1024"
"0","0","0.04727586210406273","0.04727586210406273","white","yes","psycho","psycho","psycho","0","uniform","0","undefined","0","a","1","0","60","1","1","0","0","0","0","NA","60","0","60","60","0","60","1","60","60","Tue Dec  5 17:21:14 2023","A template containing a practice and an experimental phase","yes","TalkFile_언어학과심리실험_B조_기말과제용심리실험.osexp.osexp","C:\Users\rober\OneDrive\Documents\Downloads","no","mono","no","18","no","black","no","yes","768","psycho","57","57","0","C:/Users/rober/OneDrive/바탕 화면/subject-1.csv","psycho","Lentiform Loewenfeld","3.3.14","no","악어","natural","same phoneme","0","None","NA","a","NA","a","None","a","0.0277999997488223","NA","2531.080300000205","NA","125830.62359999986","0.0277999997488223","3238.1770000001416","2","psycho","1024","2","48000","-16","experiment","1","odd","악기","artifactual","NA","276123.4325999999","162848.4762999997","162848.36939999968","NA","160315.4980999998","26661.1998999997","162847.23259999964","NA","275410.4199999997","26773.295999999846","279468.6882000001","279469.3966","152606.30459999992","275618.25950000004","NA","276229.2276999997","275402.39269999985","Extended template","0","2.7420000020356383","58","yes","1024"
"0","0","0.04704576274093982","0.04704576274093982","white","yes","psycho","psycho","psycho","0","uniform","0","undefined","0","x","1","0","61","1","1","0","0","0","0","NA","61","0","61","61","0","61","1","61","61","Tue Dec  5 17:21:14 2023","A template containing a practice and an experimental phase","yes","TalkFile_언어학과심리실험_B조_기말과제용심리실험.osexp.osexp","C:\Users\rober\OneDrive\Documents\Downloads","no","mono","no","18","no","black","no","yes","768","psycho","58","58","0","C:/Users/rober/OneDrive/바탕 화면/subject-1.csv","psycho","Lentiform Loewenfeld","3.3.14","no","절벽","natural","non-word","0","None","NA","a","NA","a","None","x","0.0336999996798113","NA","2531.080300000205","NA","125830.62359999986","0.0336999996798113","1042.020400000154","2","psycho","1024","2","48000","-16","experiment","1","odd","물로프","non-word","NA","280330.0197999997","162848.4762999997","162848.36939999968","NA","160315.4980999998","26661.1998999997","162847.23259999964","NA","279616.99120000005","26773.295999999846","281478.9427000001","281479.6760999998","152606.30459999992","279825.1608999999","NA","280435.48079999984","279607.117","Extended template","0","2.7757000017154496","59","yes","1024"
"0","0","0.04671333336009411","0.04671333336009411","white","yes","psycho","psycho","psycho","0","uniform","0","undefined","0","n","1","0","62","1","1","0","0","0","0","NA","62","0","62","62","0","62","1","62","62","Tue Dec  5 17:21:14 2023","A template containing a practice and an experimental phase","yes","TalkFile_언어학과심리실험_B조_기말과제용심리실험.osexp.osexp","C:\Users\rober\OneDrive\Documents\Downloads","no","mono","no","18","no","black","no","yes","768","psycho","59","59","0","C:/Users/rober/OneDrive/바탕 화면/subject-1.csv","psycho","Lentiform Loewenfeld","3.3.14","no","의자","artifactual","no-correlation","0","None","NA","a","NA","a","None","n","0.02709999989019707","NA","2531.080300000205","NA","125830.62359999986","0.02709999989019707","1663.3268999999273","2","psycho","1024","2","48000","-16","experiment","1","odd","행성","natural","NA","282381.6625999998","162848.4762999997","162848.36939999968","NA","160315.4980999998","26661.1998999997","162847.23259999964","NA","281666.82129999984","26773.295999999846","284151.85040000005","284152.5646999999","152606.30459999992","281874.54399999976","NA","282487.2200999998","281658.96609999985","Extended template","0","2.8028000016056467","60","yes","1024"
"0","0","0.04643278690885187","0.04643278690885187","white","yes","psycho","psycho","psycho","0","uniform","0","undefined","0","a","0","0","63","1","1","0","0","0","0","NA","63","0","63","63","0","63","1","63","63","Tue Dec  5 17:21:14 2023","A template containing a practice and an experimental phase","yes","TalkFile_언어학과심리실험_B조_기말과제용심리실험.osexp.osexp","C:\Users\rober\OneDrive\Documents\Downloads","no","mono","no","18","no","black","no","yes","768","psycho","60","60","0","C:/Users/rober/OneDrive/바탕 화면/subject-1.csv","psycho","Lentiform Loewenfeld","3.3.14","no","성적표","artifactual","same phoneme","0","None","NA","a","NA","a","None","n","0.029599999834317714","NA","2531.080300000205","NA","125830.62359999986","0.029599999834317714","1495.118400000094","2","psycho","1024","2","48000","-16","experiment","1","odd","성냥","artifactual","NA","285008.2364","162848.4762999997","162848.36939999968","NA","160315.4980999998","26661.1998999997","162847.23259999964","NA","284294.4687999998","26773.295999999846","286610.35189999983","286611.0544999997","152606.30459999992","284503.0165999997","NA","285113.8785999997","284284.0630000001","Extended template","0","2.8324000014399644","61","yes","1024"
"0","0","0.046130645189776026","0.046130645189776026","white","yes","psycho","psycho","psycho","0","uniform","0","undefined","0","n","1","0","64","1","1","0","0","0","0","NA","64","0","64","64","0","64","1","64","64","Tue Dec  5 17:21:14 2023","A template containing a practice and an experimental phase","yes","TalkFile_언어학과심리실험_B조_기말과제용심리실험.osexp.osexp","C:\Users\rober\OneDrive\Documents\Downloads","no","mono","no","18","no","black","no","yes","768","psycho","61","61","0","C:/Users/rober/OneDrive/바탕 화면/subject-1.csv","psycho","Lentiform Loewenfeld","3.3.14","no","구두","artifactual","same phoneme","0","None","NA","a","NA","a","None","n","0.027700000326149166","NA","2531.080300000205","NA","125830.62359999986","0.027700000326149166","565.2299000003259","2","psycho","1024","2","48000","-16","experiment","1","odd","구름","natural","NA","287486.5717999996","162848.4762999997","162848.36939999968","NA","160315.4980999998","26661.1998999997","162847.23259999964","NA","286770.0823","26773.295999999846","288160.27009999973","288161.2491999999","152606.30459999992","286980.3896999997","NA","287593.4884999997","286762.13370000006","Extended template","0","2.8601000017661136","62","yes","1024"
"0","0","0.047173015901260815","0.047173015901260815","white","yes","psycho","psycho","psycho","0","uniform","0","undefined","0","a","1","0","65","1","1","0","0","0","0","NA","65","0","65","65","0","65","1","65","65","Tue Dec  5 17:21:14 2023","A template containing a practice and an experimental phase","yes","TalkFile_언어학과심리실험_B조_기말과제용심리실험.osexp.osexp","C:\Users\rober\OneDrive\Documents\Downloads","no","mono","no","18","no","black","no","yes","768","psycho","62","62","0","C:/Users/rober/OneDrive/바탕 화면/subject-1.csv","psycho","Lentiform Loewenfeld","3.3.14","no","옷","artifactual","inclusive","0","None","NA","a","NA","a","None","a","0.11180000001331791","NA","2531.080300000205","NA","125830.62359999986","0.11180000001331791","2011.406399999978","2","psycho","1024","2","48000","-16","experiment","1","odd","코트","artifactual","NA","289017.5368","162848.4762999997","162848.36939999968","NA","160315.4980999998","26661.1998999997","162847.23259999964","NA","288303.21939999977","26773.295999999846","291139.12899999967","291140.8649999999","152606.30459999992","288512.75669999997","NA","289125.95109999983","288295.45460000006","Extended template","0","2.9719000017794315","63","yes","1024"
"0","0","0.046917187525195914","0.046917187525195914","white","yes","psycho","psycho","psycho","0","uniform","0","undefined","0","a","1","0","66","1","1","0","0","0","0","NA","66","0","66","66","0","66","1","66","66","Tue Dec  5 17:21:14 2023","A template containing a practice and an experimental phase","yes","TalkFile_언어학과심리실험_B조_기말과제용심리실험.osexp.osexp","C:\Users\rober\OneDrive\Documents\Downloads","no","mono","no","18","no","black","no","yes","768","psycho","63","63","0","C:/Users/rober/OneDrive/바탕 화면/subject-1.csv","psycho","Lentiform Loewenfeld","3.3.14","no","바람","natural","no-correlation","0","None","NA","a","NA","a","None","a","0.030799999833106995","NA","2531.080300000205","NA","125830.62359999986","0.030799999833106995","599.715299999807","2","psycho","1024","2","48000","-16","experiment","1","odd","버스","artifactual","NA","291991.0783999999","162848.4762999997","162848.36939999968","NA","160315.4980999998","26661.1998999997","162847.23259999964","NA","291278.34319999965","26773.295999999846","292697.8909999998","292698.96549999976","152606.30459999992","291486.1303999996","NA","292096.51399999985","291270.03479999985","Extended template","0","3.0027000016125385","64","yes","1024"
"0","0","0.04666153848162279","0.04666153848162279","white","yes","psycho","psycho","psycho","0","uniform","0","undefined","0","n","1","0","67","1","1","0","0","0","0","NA","67","0","67","67","0","67","1","67","67","Tue Dec  5 17:21:14 2023","A template containing a practice and an experimental phase","yes","TalkFile_언어학과심리실험_B조_기말과제용심리실험.osexp.osexp","C:\Users\rober\OneDrive\Documents\Downloads","no","mono","no","18","no","black","no","yes","768","psycho","64","64","0","C:/Users/rober/OneDrive/바탕 화면/subject-1.csv","psycho","Lentiform Loewenfeld","3.3.14","no","모래","natural","similar-environmental","0","None","NA","a","NA","a","None","n","0.030299999692942947","NA","2531.080300000205","NA","125830.62359999986","0.030299999692942947","639.7539000000106","2","psycho","1024","2","48000","-16","experiment","1","odd","자갈","natural","NA","293552.04689999984","162848.4762999997","162848.36939999968","NA","160315.4980999998","26661.1998999997","162847.23259999964","NA","292838.55429999996","26773.295999999846","294301.5141999999","294302.26670000004","152606.30459999992","293046.8271999998","NA","293660.3872999999","292829.69430000003","Extended template","0","3.0330000013054814","65","yes","1024"
"0","0","0.04643636365962624","0.04643636365962624","white","yes","psycho","psycho","psycho","0","uniform","0","undefined","0","a","0","0","68","1","1","0","0","0","0","NA","68","0","68","68","0","68","1","68","68","Tue Dec  5 17:21:14 2023","A template containing a practice and an experimental phase","yes","TalkFile_언어학과심리실험_B조_기말과제용심리실험.osexp.osexp","C:\Users\rober\OneDrive\Documents\Downloads","no","mono","no","18","no","black","no","yes","768","psycho","65","65","0","C:/Users/rober/OneDrive/바탕 화면/subject-1.csv","psycho","Lentiform Loewenfeld","3.3.14","no","해변","natural","similar-environmental","0","None","NA","a","NA","a","None","x","0.03180000022985041","NA","2531.080300000205","NA","125830.62359999986","0.03180000022985041","943.1475999999675","2","psycho","1024","2","48000","-16","experiment","1","odd","파라솔","artifactual","NA","295165.37969999993","162848.4762999997","162848.36939999968","NA","160315.4980999998","26661.1998999997","162847.23259999964","NA","294450.3768999998","26773.295999999846","296215.58079999976","296216.3676999999","152606.30459999992","294659.6620999999","NA","295270.9900999998","294441.5380999999","Extended template","0","3.064800001535332","66","yes","1024"
"0","0","0.04619850748376712","0.04619850748376712","white","yes","psycho","psycho","psycho","0","uniform","0","undefined","0","n","1","0","69","1","1","0","0","0","0","NA","69","0","69","69","0","69","1","69","69","Tue Dec  5 17:21:14 2023","A template containing a practice and an experimental phase","yes","TalkFile_언어학과심리실험_B조_기말과제용심리실험.osexp.osexp","C:\Users\rober\OneDrive\Documents\Downloads","no","mono","no","18","no","black","no","yes","768","psycho","66","66","0","C:/Users/rober/OneDrive/바탕 화면/subject-1.csv","psycho","Lentiform Loewenfeld","3.3.14","no","밤하늘","natural","no-correlation","0","None","NA","a","NA","a","None","n","0.03049999987706542","NA","2531.080300000205","NA","125830.62359999986","0.03049999987706542","907.0025999999489","2","psycho","1024","2","48000","-16","experiment","1","odd","바위","natural","NA","297071.86","162848.4762999997","162848.36939999968","NA","160315.4980999998","26661.1998999997","162847.23259999964","NA","296358.42469999986","26773.295999999846","298085.69279999984","298086.44749999983","152606.30459999992","296566.0970999998","NA","297177.1561","296349.1405","Extended template","0","3.0953000014123973","67","yes","1024"
"0","0","0.04608823531452799","0.04608823531452799","white","yes","psycho","psycho","psycho","0","uniform","0","undefined","0","n","1","0","70","1","1","0","0","0","0","NA","70","0","70","70","0","70","1","70","70","Tue Dec  5 17:21:14 2023","A template containing a practice and an experimental phase","yes","TalkFile_언어학과심리실험_B조_기말과제용심리실험.osexp.osexp","C:\Users\rober\OneDrive\Documents\Downloads","no","mono","no","18","no","black","no","yes","768","psycho","67","67","0","C:/Users/rober/OneDrive/바탕 화면/subject-1.csv","psycho","Lentiform Loewenfeld","3.3.14","no","오일","natural","same phoneme","0","None","NA","a","NA","a","None","n","0.038699999975506216","NA","2531.080300000205","NA","125830.62359999986","0.038699999975506216","864.2915999998804","2","psycho","1024","2","48000","-16","experiment","1","odd","오리","natural","NA","298942.7290999997","162848.4762999997","162848.36939999968","NA","160315.4980999998","26661.1998999997","162847.23259999964","NA","298229.94769999967","26773.295999999846","299914.5294","299915.5054999997","152606.30459999992","298437.99330000003","NA","299048.52829999983","298221.7846999997","Extended template","0","3.1340000013879035","68","yes","1024"
"0","0","0.04581449277052804","0.04581449277052804","white","yes","psycho","psycho","psycho","0","uniform","0","undefined","0","a","1","0","71","1","1","0","0","0","0","NA","71","0","71","71","0","71","1","71","71","Tue Dec  5 17:21:14 2023","A template containing a practice and an experimental phase","yes","TalkFile_언어학과심리실험_B조_기말과제용심리실험.osexp.osexp","C:\Users\rober\OneDrive\Documents\Downloads","no","mono","no","18","no","black","no","yes","768","psycho","68","68","0","C:/Users/rober/OneDrive/바탕 화면/subject-1.csv","psycho","Lentiform Loewenfeld","3.3.14","no","구름","natural","same phoneme","0","None","NA","a","NA","a","None","a","0.027199999778531492","NA","2531.080300000205","NA","125830.62359999986","0.027199999778531492","716.4401000000071","2","psycho","1024","2","48000","-16","experiment","1","odd","구두","artifactual","NA","300767.7497","162848.4762999997","162848.36939999968","NA","160315.4980999998","26661.1998999997","162847.23259999964","NA","300055.22699999984","26773.295999999846","301592.5864999999","301593.35969999986","152606.30459999992","300262.8792","NA","300874.76719999994","300046.21469999984","Extended template","0","3.161200001166435","69","yes","1024"
"0","0","0.04554285715774833","0.04554285715774833","white","yes","psycho","psycho","psycho","0","uniform","0","undefined","0","n","1","0","72","1","1","0","0","0","0","NA","72","0","72","72","0","72","1","72","72","Tue Dec  5 17:21:14 2023","A template containing a practice and an experimental phase","yes","TalkFile_언어학과심리실험_B조_기말과제용심리실험.osexp.osexp","C:\Users\rober\OneDrive\Documents\Downloads","no","mono","no","18","no","black","no","yes","768","psycho","69","69","0","C:/Users/rober/OneDrive/바탕 화면/subject-1.csv","psycho","Lentiform Loewenfeld","3.3.14","no","해질녘","natural","same phoneme","0","None","NA","a","NA","a","None","n","0.026799999875947833","NA","2531.080300000205","NA","125830.62359999986","0.026799999875947833","733.7065000001458","2","psycho","1024","2","48000","-16","experiment","1","odd","해마","natural","NA","302449.94659999973","162848.4762999997","162848.36939999968","NA","160315.4980999998","26661.1998999997","162847.23259999964","NA","301736.95689999976","26773.295999999846","303291.0874999998","303291.8614999999","152606.30459999992","301944.91179999977","NA","302556.04619999987","301725.43719999975","Extended template","0","3.188000001042383","70","yes","1024"
"0","0","0.04528732395699759","0.04528732395699759","white","yes","psycho","psycho","psycho","0","uniform","0","undefined","0","n","1","0","73","1","1","0","0","0","0","NA","73","0","73","73","0","73","1","73","73","Tue Dec  5 17:21:14 2023","A template containing a practice and an experimental phase","yes","TalkFile_언어학과심리실험_B조_기말과제용심리실험.osexp.osexp","C:\Users\rober\OneDrive\Documents\Downloads","no","mono","no","18","no","black","no","yes","768","psycho","70","70","0","C:/Users/rober/OneDrive/바탕 화면/subject-1.csv","psycho","Lentiform Loewenfeld","3.3.14","no","바닥","artifactual","same phoneme","0","None","NA","a","NA","a","None","n","0.027399999904446304","NA","2531.080300000205","NA","125830.62359999986","0.027399999904446304","812.0469000000157","2","psycho","1024","2","48000","-16","experiment","1","odd","바다","natural","NA","304141.8309999999","162848.4762999997","162848.36939999968","NA","160315.4980999998","26661.1998999997","162847.23259999964","NA","303428.88999999966","26773.295999999846","305061.07139999996","305061.8599999998","152606.30459999992","303636.6533","NA","304247.6797999998","303421.07050000003","Extended template","0","3.215400000946829","71","yes","1024"
"0","0","0.04519305556661695","0.04519305556661695","white","yes","psycho","psycho","psycho","0","uniform","0","undefined","0","x","0","0","74","1","1","0","0","0","0","NA","74","0","74","74","0","74","1","74","74","Tue Dec  5 17:21:14 2023","A template containing a practice and an experimental phase","yes","TalkFile_언어학과심리실험_B조_기말과제용심리실험.osexp.osexp","C:\Users\rober\OneDrive\Documents\Downloads","no","mono","no","18","no","black","no","yes","768","psycho","71","71","0","C:/Users/rober/OneDrive/바탕 화면/subject-1.csv","psycho","Lentiform Loewenfeld","3.3.14","no","폭풍","natural","non-word","0","None","NA","a","NA","a","None","n","0.038499999849591404","NA","2531.080300000205","NA","125830.62359999986","0.038499999849591404","1097.1159999999218","2","psycho","1024","2","48000","-16","experiment","1","odd","섬강","non-word","NA","305914.53180000006","162848.4762999997","162848.36939999968","NA","160315.4980999998","26661.1998999997","162847.23259999964","NA","305201.7068","26773.295999999846","307119.2904999998","307120.1103999997","152606.30459999992","305409.7579999998","NA","306020.83809999976","305192.9781999997","Extended template","0","3.2539000007964205","72","yes","1024"
"0","0","0.04505342466889064","0.04505342466889064","white","yes","psycho","psycho","psycho","0","uniform","0","undefined","0","n","1","0","75","1","1","0","0","0","0","NA","75","0","75","75","0","75","1","75","75","Tue Dec  5 17:21:14 2023","A template containing a practice and an experimental phase","yes","TalkFile_언어학과심리실험_B조_기말과제용심리실험.osexp.osexp","C:\Users\rober\OneDrive\Documents\Downloads","no","mono","no","18","no","black","no","yes","768","psycho","72","72","0","C:/Users/rober/OneDrive/바탕 화면/subject-1.csv","psycho","Lentiform Loewenfeld","3.3.14","no","숲","natural","inclusive","0","None","NA","a","NA","a","None","n","0.03500000003259629","NA","2531.080300000205","NA","125830.62359999986","0.03500000003259629","1124.3641999999527","2","psycho","1024","2","48000","-16","experiment","1","odd","나무","natural","NA","307971.15399999986","162848.4762999997","162848.36939999968","NA","160315.4980999998","26661.1998999997","162847.23259999964","NA","307256.97059999994","26773.295999999846","309203.30749999994","309204.20369999966","152606.30459999992","307464.93699999974","NA","308076.96529999975","307248.2405000001","Extended template","0","3.288900000829017","73","yes","1024"
"0","0","0.04487837838658723","0.04487837838658723","white","yes","psycho","psycho","psycho","0","uniform","0","undefined","0","n","1","0","76","1","1","0","0","0","0","NA","76","0","76","76","0","76","1","76","76","Tue Dec  5 17:21:14 2023","A template containing a practice and an experimental phase","yes","TalkFile_언어학과심리실험_B조_기말과제용심리실험.osexp.osexp","C:\Users\rober\OneDrive\Documents\Downloads","no","mono","no","18","no","black","no","yes","768","psycho","73","73","0","C:/Users/rober/OneDrive/바탕 화면/subject-1.csv","psycho","Lentiform Loewenfeld","3.3.14","no","바다","natural","same phoneme","0","None","NA","a","NA","a","None","n","0.03209999977843836","NA","2531.080300000205","NA","125830.62359999986","0.03209999977843836","683.0814999998547","2","psycho","1024","2","48000","-16","experiment","1","odd","바퀴벌레","natural","NA","310100.8265999999","162848.4762999997","162848.36939999968","NA","160315.4980999998","26661.1998999997","162847.23259999964","NA","309386.8746999997","26773.295999999846","310891.576","310892.4834999998","152606.30459999992","309595.9849999999","NA","310206.8715999999","309377.41539999977","Extended template","0","3.321000000607455","74","yes","1024"
"0","0","0.044720000011924034","0.044720000011924034","white","yes","psycho","psycho","psycho","0","uniform","0","undefined","0","a","1","0","77","1","1","0","0","0","0","NA","77","0","77","77","0","77","1","77","77","Tue Dec  5 17:21:14 2023","A template containing a practice and an experimental phase","yes","TalkFile_언어학과심리실험_B조_기말과제용심리실험.osexp.osexp","C:\Users\rober\OneDrive\Documents\Downloads","no","mono","no","18","no","black","no","yes","768","psycho","74","74","0","C:/Users/rober/OneDrive/바탕 화면/subject-1.csv","psycho","Lentiform Loewenfeld","3.3.14","no","로봇","artifactual","same phoneme","0","None","NA","a","NA","a","None","a","0.03300000028684735","NA","2531.080300000205","NA","125830.62359999986","0.03300000028684735","766.5914999997476","2","psycho","1024","2","48000","-16","experiment","1","odd","로켓","artifactual","NA","311746.5789999997","162848.4762999997","162848.36939999968","NA","160315.4980999998","26661.1998999997","162847.23259999964","NA","311032.3242","26773.295999999846","312620.5357999997","312621.4176999997","152606.30459999992","311241.04910000006","NA","311852.35139999987","311023.96849999967","Extended template","0","3.3540000008943025","75","yes","1024"
"0","0","0.044905263167349496","0.044905263167349496","white","yes","psycho","psycho","psycho","0","uniform","0","undefined","0","n","1","0","78","1","1","0","0","0","0","NA","78","0","78","78","0","78","1","78","78","Tue Dec  5 17:21:14 2023","A template containing a practice and an experimental phase","yes","TalkFile_언어학과심리실험_B조_기말과제용심리실험.osexp.osexp","C:\Users\rober\OneDrive\Documents\Downloads","no","mono","no","18","no","black","no","yes","768","psycho","75","75","0","C:/Users/rober/OneDrive/바탕 화면/subject-1.csv","psycho","Lentiform Loewenfeld","3.3.14","no","불","natural","no-correlation","0","None","NA","a","NA","a","None","n","0.05879999982425943","NA","2531.080300000205","NA","125830.62359999986","0.05879999982425943","785.1370999997016","2","psycho","1024","2","48000","-16","experiment","1","odd","물고기","natural","NA","313477.26009999996","162848.4762999997","162848.36939999968","NA","160315.4980999998","26661.1998999997","162847.23259999964","NA","312763.8465999999","26773.295999999846","314371.7317999999","314373.97409999993","152606.30459999992","312971.9442","NA","313583.6279","312754.8637999998","Extended template","0","3.412800000718562","76","yes","1024"
"0","0","0.04479350650784342","0.04479350650784342","white","yes","psycho","psycho","psycho","0","uniform","0","undefined","0","a","1","0","79","1","1","0","0","0","0","NA","79","0","79","79","0","79","1","79","79","Tue Dec  5 17:21:14 2023","A template containing a practice and an experimental phase","yes","TalkFile_언어학과심리실험_B조_기말과제용심리실험.osexp.osexp","C:\Users\rober\OneDrive\Documents\Downloads","no","mono","no","18","no","black","no","yes","768","psycho","76","76","0","C:/Users/rober/OneDrive/바탕 화면/subject-1.csv","psycho","Lentiform Loewenfeld","3.3.14","no","모니터","artifactual","same phoneme","0","None","NA","a","NA","a","None","a","0.03630000038538128","NA","2531.080300000205","NA","125830.62359999986","0.03630000038538128","939.6034000001382","2","psycho","1024","2","48000","-16","experiment","1","odd","모터","artifactual","NA","315257.1172999997","162848.4762999997","162848.36939999968","NA","160315.4980999998","26661.1998999997","162847.23259999964","NA","314543.49969999975","26773.295999999846","316303.4086999996","316304.25539999985","152606.30459999992","314752.3526999999","NA","315362.3948999998","314535.58949999977","Extended template","0","3.449100001103943","77","yes","1024"
"0","0","0.0445820512955274","0.0445820512955274","white","yes","psycho","psycho","psycho","0","uniform","0","undefined","0","a","1","0","80","1","1","0","0","0","0","NA","80","0","80","80","0","80","1","80","80","Tue Dec  5 17:21:14 2023","A template containing a practice and an experimental phase","yes","TalkFile_언어학과심리실험_B조_기말과제용심리실험.osexp.osexp","C:\Users\rober\OneDrive\Documents\Downloads","no","mono","no","18","no","black","no","yes","768","psycho","77","77","0","C:/Users/rober/OneDrive/바탕 화면/subject-1.csv","psycho","Lentiform Loewenfeld","3.3.14","no","기차","artifactual","no-correlation","0","None","NA","a","NA","a","None","a","0.02829999994719401","NA","2531.080300000205","NA","125830.62359999986","0.02829999994719401","769.0864999999758","2","psycho","1024","2","48000","-16","experiment","1","odd","가방","artifactual","NA","317157.73919999995","162848.4762999997","162848.36939999968","NA","160315.4980999998","26661.1998999997","162847.23259999964","NA","316443.9993000001","26773.295999999846","318034.1642999997","318035.0349","152606.30459999992","316652.3242999997","NA","317263.44449999987","316436.1509","Extended template","0","3.4774000010511372","78","yes","1024"
