"acc","accuracy","average_response_time","avg_rt","background","bidi","canvas_backend","clock_backend","color_backend","compensation","coordinates","correct","correct_instructions","correct_keyboard_response","correct_response","correct_target","count_about_this_template","count_blank","count_block_loop","count_block_sequence","count_end_of_experiment","count_end_of_practice","count_experiment","count_experimental_loop","count_feedback","count_fixation","count_instructions","count_keyboard_response","count_logger","count_practice_loop","count_prime","count_reset_feedback","count_target","count_trial_sequence","datetime","description","disable_garbage_collection","experiment_file","experiment_path","font_bold","font_family","font_italic","font_size","font_underline","foreground","form_clicks","fullscreen","height","keyboard_backend","live_row","live_row_block_loop","live_row_practice_loop","logfile","mouse_backend","opensesame_codename","opensesame_version","practice","prime","prime_condition","relation","repeat_cycle","response","response_end_of_experiment","response_end_of_practice","response_feedback","response_instructions","response_keyboard_response","response_target","response_time","response_time_end_of_experiment","response_time_end_of_practice","response_time_feedback","response_time_instructions","response_time_keyboard_response","response_time_target","round_decimals","sampler_backend","sound_buf_size","sound_channels","sound_freq","sound_sample_size","start","subject_nr","subject_parity","target","target_condition","time_about_this_template","time_blank","time_block_loop","time_block_sequence","time_end_of_experiment","time_end_of_practice","time_experiment","time_experimental_loop","time_feedback","time_fixation","time_instructions","time_keyboard_response","time_logger","time_practice_loop","time_prime","time_reset_feedback","time_target","time_trial_sequence","title","total_correct","total_response_time","total_responses","uniform_coordinates","width"
"0","0","0.028200000087963417","0.028200000087963417","white","yes","psycho","psycho","psycho","0","uniform","0","undefined","0","n","1","0","0","0","0","0","0","0","0","NA","0","0","0","0","0","0","0","0","0","Tue Dec  5 18:00:30 2023","A template containing a practice and an experimental phase","yes","TalkFile_언어학과심리실험_B조_기말과제용심리실험.osexp.osexp","C:\Users\rober\OneDrive\Documents\Downloads","no","mono","no","18","no","black","no","yes","768","psycho","0","0","0","C:/Users/rober/OneDrive/바탕 화면/subject-3.csv","psycho","Lentiform Loewenfeld","3.3.14","yes","우산","artifactual","similar-environmental","0","None","NA","NA","NA","a","None","n","0.028200000087963417","NA","NA","NA","990.890699999909","0.028200000087963417","1440.8940000002985","2","psycho","1024","2","48000","-16","experiment","3","odd","비","natural","NA","18119.378700000198","17257.740099999864","17257.505599999604","NA","NA","16206.633199999487","NA","NA","17406.337299999905","16263.69639999939","19667.230799999743","19667.40519999985","17256.657500000074","17614.40649999986","NA","18225.293099999362","17392.659099999946","Extended template","0","0.028200000087963417","1","yes","1024"
"0","0","0.027750000299420208","0.027750000299420208","white","yes","psycho","psycho","psycho","0","uniform","0","undefined","0","n","1","0","1","0","0","0","0","0","0","NA","1","0","1","1","0","1","0","1","1","Tue Dec  5 18:00:30 2023","A template containing a practice and an experimental phase","yes","TalkFile_언어학과심리실험_B조_기말과제용심리실험.osexp.osexp","C:\Users\rober\OneDrive\Documents\Downloads","no","mono","no","18","no","black","no","yes","768","psycho","1","1","0","C:/Users/rober/OneDrive/바탕 화면/subject-3.csv","psycho","Lentiform Loewenfeld","3.3.14","yes","수영","artifactual","similar-environmental","0","None","NA","NA","NA","a","None","n","0.027300000510877","NA","NA","NA","990.890699999909","0.027300000510877","590.9185000000434","2","psycho","1024","2","48000","-16","experiment","3","odd","바다","natural","NA","20543.99999999987","17257.740099999864","17257.505599999604","NA","NA","16206.633199999487","NA","NA","19828.924399999778","16263.69639999939","21241.721499999585","21241.897599999902","17256.657500000074","20038.636199999928","NA","20649.98319999995","19820.400399999926","Extended template","0","0.055500000598840415","2","yes","1024"
"0","0","0.02840000039820249","0.02840000039820249","white","yes","psycho","psycho","psycho","0","uniform","0","undefined","0","a","0","0","2","0","0","0","0","0","0","NA","2","0","2","2","0","2","0","2","2","Tue Dec  5 18:00:30 2023","A template containing a practice and an experimental phase","yes","TalkFile_언어학과심리실험_B조_기말과제용심리실험.osexp.osexp","C:\Users\rober\OneDrive\Documents\Downloads","no","mono","no","18","no","black","no","yes","768","psycho","2","2","0","C:/Users/rober/OneDrive/바탕 화면/subject-3.csv","psycho","Lentiform Loewenfeld","3.3.14","yes","꽃","natural","no-correlation","0","None","NA","NA","NA","a","None","n","0.02970000059576705","NA","NA","NA","990.890699999909","0.02970000059576705","668.5790999999881","2","psycho","1024","2","48000","-16","experiment","3","odd","풍차","artifactual","NA","22095.155799999702","17257.740099999864","17257.505599999604","NA","NA","16206.633199999487","NA","NA","21381.0040999997","16263.69639999939","22882.283399999324","22882.4924999999","17256.657500000074","21588.903400000163","NA","22212.892099999408","21372.48829999953","Extended template","0","0.08520000119460747","3","yes","1024"
"0","0","0.027300000510877","0.027300000510877","white","yes","psycho","psycho","psycho","0","uniform","0","undefined","0","a","1","0","3","1","1","0","0","0","0","NA","3","0","3","3","0","3","1","3","3","Tue Dec  5 18:00:30 2023","A template containing a practice and an experimental phase","yes","TalkFile_언어학과심리실험_B조_기말과제용심리실험.osexp.osexp","C:\Users\rober\OneDrive\Documents\Downloads","no","mono","no","18","no","black","no","yes","768","psycho","0","0","0","C:/Users/rober/OneDrive/바탕 화면/subject-3.csv","psycho","Lentiform Loewenfeld","3.3.14","no","가방","artifactual","no-correlation","0","None","NA","n","NA","a","None","a","0.027300000510877","NA","812.1363000000201","NA","990.890699999909","0.027300000510877","771.8549999999595","2","psycho","1024","2","48000","-16","experiment","3","odd","기차","artifactual","NA","24619.133899999724","23810.062099999413","23809.96789999972","NA","22996.162399999776","16206.633199999487","23809.11599999945","NA","23905.672799999593","16263.69639999939","25498.152299999674","25498.33630000012","17256.657500000074","24114.053299999796","NA","24725.521399999707","23892.949099999896","Extended template","0","0.027300000510877","1","yes","1024"
"0","0","0.026950000119541073","0.026950000119541073","white","yes","psycho","psycho","psycho","0","uniform","0","undefined","0","n","1","0","4","1","1","0","0","0","0","NA","4","0","4","4","0","4","1","4","4","Tue Dec  5 18:00:30 2023","A template containing a practice and an experimental phase","yes","TalkFile_언어학과심리실험_B조_기말과제용심리실험.osexp.osexp","C:\Users\rober\OneDrive\Documents\Downloads","no","mono","no","18","no","black","no","yes","768","psycho","1","1","0","C:/Users/rober/OneDrive/바탕 화면/subject-3.csv","psycho","Lentiform Loewenfeld","3.3.14","no","호수","natural","same phoneme","0","None","NA","n","NA","a","None","n","0.026599999728205148","NA","812.1363000000201","NA","990.890699999909","0.026599999728205148","622.3134000001664","2","psycho","1024","2","48000","-16","experiment","3","odd","호랑이","natural","NA","26383.725400000003","23810.062099999413","23809.96789999972","NA","22996.162399999776","16206.633199999487","23809.11599999945","NA","25670.751499999824","16263.69639999939","27112.35519999991","27112.571099999514","17256.657500000074","25878.802399999586","NA","26489.32429999968","25658.808399999543","Extended template","0","0.053900000239082146","2","yes","1024"
"0","0","0.04500000007586399","0.04500000007586399","white","yes","psycho","psycho","psycho","0","uniform","0","undefined","0","a","1","0","5","1","1","0","0","0","0","NA","5","0","5","5","0","5","1","5","5","Tue Dec  5 18:00:30 2023","A template containing a practice and an experimental phase","yes","TalkFile_언어학과심리실험_B조_기말과제용심리실험.osexp.osexp","C:\Users\rober\OneDrive\Documents\Downloads","no","mono","no","18","no","black","no","yes","768","psycho","2","2","0","C:/Users/rober/OneDrive/바탕 화면/subject-3.csv","psycho","Lentiform Loewenfeld","3.3.14","no","선설수","non-word","non-word","0","None","NA","n","NA","a","None","a","0.08109999998850981","NA","812.1363000000201","NA","990.890699999909","0.08109999998850981","636.2520000002405","2","psycho","1024","2","48000","-16","experiment","3","odd","시계","artifactual","NA","27967.89869999975","23810.062099999413","23809.96789999972","NA","22996.162399999776","16206.633199999487","23809.11599999945","NA","27253.98529999984","16263.69639999939","28710.754499999894","28711.28299999964","17256.657500000074","27462.612100000115","NA","28073.251299999356","27244.959499999823","Extended template","0","0.13500000022759195","3","yes","1024"
"0","0","0.04227500016895647","0.04227500016895647","white","yes","psycho","psycho","psycho","0","uniform","0","undefined","0","n","0","0","6","1","1","0","0","0","0","NA","6","0","6","6","0","6","1","6","6","Tue Dec  5 18:00:30 2023","A template containing a practice and an experimental phase","yes","TalkFile_언어학과심리실험_B조_기말과제용심리실험.osexp.osexp","C:\Users\rober\OneDrive\Documents\Downloads","no","mono","no","18","no","black","no","yes","768","psycho","3","3","0","C:/Users/rober/OneDrive/바탕 화면/subject-3.csv","psycho","Lentiform Loewenfeld","3.3.14","no","달","artifactual","same phoneme","0","None","NA","n","NA","a","None","a","0.034100000448233914","NA","812.1363000000201","NA","990.890699999909","0.034100000448233914","715.5465000005279","2","psycho","1024","2","48000","-16","experiment","3","odd","달력","natural","NA","29608.72399999971","23810.062099999413","23809.96789999972","NA","22996.162399999776","16206.633199999487","23809.11599999945","NA","28895.17319999959","16263.69639999939","30430.649199999607","30430.914399999892","17256.657500000074","29102.636699999493","NA","29714.225099999567","28886.836499999845","Extended template","0","0.16910000067582587","4","yes","1024"
"0","0","0.039200000173877925","0.039200000173877925","white","yes","psycho","psycho","psycho","0","uniform","0","undefined","0","n","1","0","7","1","1","0","0","0","0","NA","7","0","7","7","0","7","1","7","7","Tue Dec  5 18:00:30 2023","A template containing a practice and an experimental phase","yes","TalkFile_언어학과심리실험_B조_기말과제용심리실험.osexp.osexp","C:\Users\rober\OneDrive\Documents\Downloads","no","mono","no","18","no","black","no","yes","768","psycho","4","4","0","C:/Users/rober/OneDrive/바탕 화면/subject-3.csv","psycho","Lentiform Loewenfeld","3.3.14","no","불","natural","no-correlation","0","None","NA","n","NA","a","None","n","0.026900000193563756","NA","812.1363000000201","NA","990.890699999909","0.026900000193563756","630.9209000000919","2","psycho","1024","2","48000","-16","experiment","3","odd","바위","natural","NA","31317.80660000004","23810.062099999413","23809.96789999972","NA","22996.162399999776","16206.633199999487","23809.11599999945","NA","30604.42939999939","16263.69639999939","32055.072899999686","32055.28939999931","17256.657500000074","30812.647699999616","NA","31423.407999999654","30590.324199999486","Extended template","0","0.19600000086938962","5","yes","1024"
"0","0","0.0381500000609473","0.0381500000609473","white","yes","psycho","psycho","psycho","0","uniform","0","undefined","0","n","1","0","8","1","1","0","0","0","0","NA","8","0","8","8","0","8","1","8","8","Tue Dec  5 18:00:30 2023","A template containing a practice and an experimental phase","yes","TalkFile_언어학과심리실험_B조_기말과제용심리실험.osexp.osexp","C:\Users\rober\OneDrive\Documents\Downloads","no","mono","no","18","no","black","no","yes","768","psycho","5","5","0","C:/Users/rober/OneDrive/바탕 화면/subject-3.csv","psycho","Lentiform Loewenfeld","3.3.14","no","호수","natural","no-correlation","0","None","NA","n","NA","a","None","n","0.032899999496294186","NA","812.1363000000201","NA","990.890699999909","0.032899999496294186","703.1024000007164","2","psycho","1024","2","48000","-16","experiment","3","odd","소나무","natural","NA","32909.57519999938","23810.062099999413","23809.96789999972","NA","22996.162399999776","16206.633199999487","23809.11599999945","NA","32195.480299999872","16263.69639999939","33719.39370000018","33719.65629999977","17256.657500000074","32403.990499999964","NA","33015.3550999994","32187.00069999977","Extended template","0","0.2289000003656838","6","yes","1024"
"0","0","0.03700000005275277","0.03700000005275277","white","yes","psycho","psycho","psycho","0","uniform","0","undefined","0","a","0","0","9","1","1","0","0","0","0","NA","9","0","9","9","0","9","1","9","9","Tue Dec  5 18:00:30 2023","A template containing a practice and an experimental phase","yes","TalkFile_언어학과심리실험_B조_기말과제용심리실험.osexp.osexp","C:\Users\rober\OneDrive\Documents\Downloads","no","mono","no","18","no","black","no","yes","768","psycho","6","6","0","C:/Users/rober/OneDrive/바탕 화면/subject-3.csv","psycho","Lentiform Loewenfeld","3.3.14","no","해변","natural","similar-environmental","0","None","NA","n","NA","a","None","x","0.030100000003585592","NA","812.1363000000201","NA","990.890699999909","0.030100000003585592","1481.5794000005553","2","psycho","1024","2","48000","-16","experiment","3","odd","파라솔","artifactual","NA","34577.658999999585","23810.062099999413","23809.96789999972","NA","22996.162399999776","16206.633199999487","23809.11599999945","NA","33864.91639999986","16263.69639999939","36165.9724000001","36166.22889999962","17256.657500000074","34072.64909999958","NA","34683.50279999959","33856.28980000001","Extended template","0","0.2590000003692694","7","yes","1024"
"0","0","0.03618750008627103","0.03618750008627103","white","yes","psycho","psycho","psycho","0","uniform","0","undefined","0","a","1","0","10","1","1","0","0","0","0","NA","10","0","10","10","0","10","1","10","10","Tue Dec  5 18:00:30 2023","A template containing a practice and an experimental phase","yes","TalkFile_언어학과심리실험_B조_기말과제용심리실험.osexp.osexp","C:\Users\rober\OneDrive\Documents\Downloads","no","mono","no","18","no","black","no","yes","768","psycho","7","7","0","C:/Users/rober/OneDrive/바탕 화면/subject-3.csv","psycho","Lentiform Loewenfeld","3.3.14","no","산","natural","similar-environmental","0","None","NA","n","NA","a","None","a","0.030500000320898835","NA","812.1363000000201","NA","990.890699999909","0.030500000320898835","1455.7518999999957","2","psycho","1024","2","48000","-16","experiment","3","odd","오두막","artifactual","NA","37026.387500000055","23810.062099999413","23809.96789999972","NA","22996.162399999776","16206.633199999487","23809.11599999945","NA","36313.73789999998","16263.69639999939","38588.62109999973","38588.89670000008","17256.657500000074","36521.27819999987","NA","37131.96499999958","36305.44169999939","Extended template","0","0.28950000069016824","8","yes","1024"
"0","0","0.03518888893773288","0.03518888893773288","white","yes","psycho","psycho","psycho","0","uniform","0","undefined","0","x","1","0","11","1","1","0","0","0","0","NA","11","0","11","11","0","11","1","11","11","Tue Dec  5 18:00:30 2023","A template containing a practice and an experimental phase","yes","TalkFile_언어학과심리실험_B조_기말과제용심리실험.osexp.osexp","C:\Users\rober\OneDrive\Documents\Downloads","no","mono","no","18","no","black","no","yes","768","psycho","8","8","0","C:/Users/rober/OneDrive/바탕 화면/subject-3.csv","psycho","Lentiform Loewenfeld","3.3.14","no","벨트","artifactual","non-word","0","None","NA","n","NA","a","None","x","0.02719999974942766","NA","812.1363000000201","NA","990.890699999909","0.02719999974942766","1521.5028999991773","2","psycho","1024","2","48000","-16","experiment","3","odd","진웬","non-word","NA","39446.32519999959","23810.062099999413","23809.96789999972","NA","22996.162399999776","16206.633199999487","23809.11599999945","NA","38732.611699999325","16263.69639999939","41074.54899999993","41074.81049999933","17256.657500000074","38940.49129999985","NA","39552.01440000019","38724.78729999966","Extended template","0","0.3167000004395959","9","yes","1024"
"0","0","0.03472000007604947","0.03472000007604947","white","yes","psycho","psycho","psycho","0","uniform","0","undefined","0","a","1","0","12","1","1","0","0","0","0","NA","12","0","12","12","0","12","1","12","12","Tue Dec  5 18:00:30 2023","A template containing a practice and an experimental phase","yes","TalkFile_언어학과심리실험_B조_기말과제용심리실험.osexp.osexp","C:\Users\rober\OneDrive\Documents\Downloads","no","mono","no","18","no","black","no","yes","768","psycho","9","9","0","C:/Users/rober/OneDrive/바탕 화면/subject-3.csv","psycho","Lentiform Loewenfeld","3.3.14","no","모니터","artifactual","same phoneme","0","None","NA","n","NA","a","None","a","0.030500000320898835","NA","812.1363000000201","NA","990.890699999909","0.030500000320898835","1400.8506000000125","2","psycho","1024","2","48000","-16","experiment","3","odd","모터","artifactual","NA","41933.631899999455","23810.062099999413","23809.96789999972","NA","22996.162399999776","16206.633199999487","23809.11599999945","NA","41217.55159999975","16263.69639999939","43440.98229999963","43441.27599999956","17256.657500000074","41427.3647","NA","42039.18969999995","41209.887799999706","Extended template","0","0.34720000076049473","10","yes","1024"
"0","0","0.0340090909958235","0.0340090909958235","white","yes","psycho","psycho","psycho","0","uniform","0","undefined","0","a","1","0","13","1","1","0","0","0","0","NA","13","0","13","13","0","13","1","13","13","Tue Dec  5 18:00:30 2023","A template containing a practice and an experimental phase","yes","TalkFile_언어학과심리실험_B조_기말과제용심리실험.osexp.osexp","C:\Users\rober\OneDrive\Documents\Downloads","no","mono","no","18","no","black","no","yes","768","psycho","10","10","0","C:/Users/rober/OneDrive/바탕 화면/subject-3.csv","psycho","Lentiform Loewenfeld","3.3.14","no","카메라","artifactual","inclusive","0","None","NA","n","NA","a","None","a","0.026900000193563756","NA","812.1363000000201","NA","990.890699999909","0.026900000193563756","1021.739400000115","2","psycho","1024","2","48000","-16","experiment","3","odd","렌즈","artifactual","NA","44300.10080000011","23810.062099999413","23809.96789999972","NA","22996.162399999776","16206.633199999487","23809.11599999945","NA","43584.222299999965","16263.69639999939","45428.681599999436","45428.949699999976","17256.657500000074","43795.32239999935","NA","44406.11259999969","43576.29850000012","Extended template","0","0.3741000009540585","11","yes","1024"
"0","0","0.033616666769376025","0.033616666769376025","white","yes","psycho","psycho","psycho","0","uniform","0","undefined","0","a","1","0","14","1","1","0","0","0","0","NA","14","0","14","14","0","14","1","14","14","Tue Dec  5 18:00:30 2023","A template containing a practice and an experimental phase","yes","TalkFile_언어학과심리실험_B조_기말과제용심리실험.osexp.osexp","C:\Users\rober\OneDrive\Documents\Downloads","no","mono","no","18","no","black","no","yes","768","psycho","11","11","0","C:/Users/rober/OneDrive/바탕 화면/subject-3.csv","psycho","Lentiform Loewenfeld","3.3.14","no","소나무","natural","same phoneme","0","None","NA","n","NA","a","None","a","0.02930000027845381","NA","812.1363000000201","NA","990.890699999909","0.02930000027845381","627.2774999997637","2","psycho","1024","2","48000","-16","experiment","3","odd","소방서","artifactual","NA","46289.65249999965","23810.062099999413","23809.96789999972","NA","22996.162399999776","16206.633199999487","23809.11599999945","NA","45576.795399999355","16263.69639999939","47024.28079999936","47024.58879999995","17256.657500000074","45784.27929999998","NA","46396.094300000186","45564.7484000001","Extended template","0","0.4034000012325123","12","yes","1024"
"0","0","0.03365384628313432","0.03365384628313432","white","yes","psycho","psycho","psycho","0","uniform","0","undefined","0","x","0","0","15","1","1","0","0","0","0","NA","15","0","15","15","0","15","1","15","15","Tue Dec  5 18:00:30 2023","A template containing a practice and an experimental phase","yes","TalkFile_언어학과심리실험_B조_기말과제용심리실험.osexp.osexp","C:\Users\rober\OneDrive\Documents\Downloads","no","mono","no","18","no","black","no","yes","768","psycho","12","12","0","C:/Users/rober/OneDrive/바탕 화면/subject-3.csv","psycho","Lentiform Loewenfeld","3.3.14","no","시계","artifactual","non-word","0","None","NA","n","NA","a","None","a","0.034100000448233914","NA","812.1363000000201","NA","990.890699999909","0.034100000448233914","2292.4001999999746","2","psycho","1024","2","48000","-16","experiment","3","odd","책솜","non-word","NA","47888.027999999395","23810.062099999413","23809.96789999972","NA","22996.162399999776","16206.633199999487","23809.11599999945","NA","47173.18619999969","16263.69639999939","50287.590799999634","50287.950299999466","17256.657500000074","47381.206199999724","NA","47994.17970000013","47161.139199999525","Extended template","0","0.4375000016807462","13","yes","1024"
"0","0","0.03859285724112332","0.03859285724112332","white","yes","psycho","psycho","psycho","0","uniform","0","undefined","0","a","1","0","16","1","1","0","0","0","0","NA","16","0","16","16","0","16","1","16","16","Tue Dec  5 18:00:30 2023","A template containing a practice and an experimental phase","yes","TalkFile_언어학과심리실험_B조_기말과제용심리실험.osexp.osexp","C:\Users\rober\OneDrive\Documents\Downloads","no","mono","no","18","no","black","no","yes","768","psycho","13","13","0","C:/Users/rober/OneDrive/바탕 화면/subject-3.csv","psycho","Lentiform Loewenfeld","3.3.14","no","구름","natural","same phoneme","0","None","NA","n","NA","a","None","a","0.10279999969498022","NA","812.1363000000201","NA","990.890699999909","0.10279999969498022","1739.0110000005734","2","psycho","1024","2","48000","-16","experiment","3","odd","구슬","artifactual","NA","51149.100499999804","23810.062099999413","23809.96789999972","NA","22996.162399999776","16206.633199999487","23809.11599999945","NA","50434.629100000166","16263.69639999939","52996.67520000003","52997.66649999947","17256.657500000074","50643.685600000026","NA","51255.2670999994","50427.176000000145","Extended template","0","0.5403000013757264","14","yes","1024"
"0","0","0.03830000011172766","0.03830000011172766","white","yes","psycho","psycho","psycho","0","uniform","0","undefined","0","x","1","0","17","1","1","0","0","0","0","NA","17","0","17","17","0","17","1","17","17","Tue Dec  5 18:00:30 2023","A template containing a practice and an experimental phase","yes","TalkFile_언어학과심리실험_B조_기말과제용심리실험.osexp.osexp","C:\Users\rober\OneDrive\Documents\Downloads","no","mono","no","18","no","black","no","yes","768","psycho","14","14","0","C:/Users/rober/OneDrive/바탕 화면/subject-3.csv","psycho","Lentiform Loewenfeld","3.3.14","no","냉장고","artifactual","non-word","0","None","NA","n","NA","a","None","x","0.03420000030018855","NA","812.1363000000201","NA","990.890699999909","0.03420000030018855","1507.536500000242","2","psycho","1024","2","48000","-16","experiment","3","odd","로방삭","non-word","NA","53888.82029999968","23810.062099999413","23809.96789999972","NA","22996.162399999776","16206.633199999487","23809.11599999945","NA","53174.012099999345","16263.69639999939","55503.71509999968","55504.03389999974","17256.657500000074","53383.2739999998","NA","53994.31039999945","53164.92349999953","Extended template","0","0.574500001675915","15","yes","1024"
"0","0","0.03765625012874807","0.03765625012874807","white","yes","psycho","psycho","psycho","0","uniform","0","undefined","0","a","1","0","18","1","1","0","0","0","0","NA","18","0","18","18","0","18","1","18","18","Tue Dec  5 18:00:30 2023","A template containing a practice and an experimental phase","yes","TalkFile_언어학과심리실험_B조_기말과제용심리실험.osexp.osexp","C:\Users\rober\OneDrive\Documents\Downloads","no","mono","no","18","no","black","no","yes","768","psycho","15","15","0","C:/Users/rober/OneDrive/바탕 화면/subject-3.csv","psycho","Lentiform Loewenfeld","3.3.14","no","옷","artifactual","inclusive","0","None","NA","n","NA","a","None","a","0.028000000384054147","NA","812.1363000000201","NA","990.890699999909","0.028000000384054147","3476.1459999999715","2","psycho","1024","2","48000","-16","experiment","3","odd","코트","artifactual","NA","56358.608800000184","23810.062099999413","23809.96789999972","NA","22996.162399999776","16206.633199999487","23809.11599999945","NA","55645.46729999984","16263.69639999939","59941.03629999972","59941.34519999989","17256.657500000074","55853.48199999953","NA","56463.99029999975","55637.644499999624","Extended template","0","0.6025000020599691","16","yes","1024"
"0","0","0.037070588351686154","0.037070588351686154","white","yes","psycho","psycho","psycho","0","uniform","0","undefined","0","n","1","0","19","1","1","0","0","0","0","NA","19","0","19","19","0","19","1","19","19","Tue Dec  5 18:00:30 2023","A template containing a practice and an experimental phase","yes","TalkFile_언어학과심리실험_B조_기말과제용심리실험.osexp.osexp","C:\Users\rober\OneDrive\Documents\Downloads","no","mono","no","18","no","black","no","yes","768","psycho","16","16","0","C:/Users/rober/OneDrive/바탕 화면/subject-3.csv","psycho","Lentiform Loewenfeld","3.3.14","no","달력","artifactual","same phoneme","0","None","NA","n","NA","a","None","n","0.02769999991869554","NA","812.1363000000201","NA","990.890699999909","0.02769999991869554","1150.9531000001516","2","psycho","1024","2","48000","-16","experiment","3","odd","달","natural","NA","60796.84249999991","23810.062099999413","23809.96789999972","NA","22996.162399999776","16206.633199999487","23809.11599999945","NA","60083.52620000005","16263.69639999939","62054.5032","62054.84949999936","17256.657500000074","60291.373199999725","NA","60902.654299999995","60074.70459999968","Extended template","0","0.6302000019786647","17","yes","1024"
"0","0","0.03807222234778843","0.03807222234778843","white","yes","psycho","psycho","psycho","0","uniform","0","undefined","0","n","1","0","20","1","1","0","0","0","0","NA","20","0","20","20","0","20","1","20","20","Tue Dec  5 18:00:30 2023","A template containing a practice and an experimental phase","yes","TalkFile_언어학과심리실험_B조_기말과제용심리실험.osexp.osexp","C:\Users\rober\OneDrive\Documents\Downloads","no","mono","no","18","no","black","no","yes","768","psycho","17","17","0","C:/Users/rober/OneDrive/바탕 화면/subject-3.csv","psycho","Lentiform Loewenfeld","3.3.14","no","대학교","artifactual","no-correlation","0","None","NA","n","NA","a","None","n","0.05510000028152717","NA","812.1363000000201","NA","990.890699999909","0.05510000028152717","1280.02110000034","2","psycho","1024","2","48000","-16","experiment","3","odd","계곡","natural","NA","62909.47379999943","23810.062099999413","23809.96789999972","NA","22996.162399999776","16206.633199999487","23809.11599999945","NA","62196.294899999884","16263.69639999939","64296.7622999995","64297.82889999933","17256.657500000074","62404.17600000001","NA","63015.19019999978","62188.08649999937","Extended template","0","0.6853000022601918","18","yes","1024"
"0","0","0.03757368435043119","0.03757368435043119","white","yes","psycho","psycho","psycho","0","uniform","0","undefined","0","n","1","0","21","1","1","0","0","0","0","NA","21","0","21","21","0","21","1","21","21","Tue Dec  5 18:00:30 2023","A template containing a practice and an experimental phase","yes","TalkFile_언어학과심리실험_B조_기말과제용심리실험.osexp.osexp","C:\Users\rober\OneDrive\Documents\Downloads","no","mono","no","18","no","black","no","yes","768","psycho","18","18","0","C:/Users/rober/OneDrive/바탕 화면/subject-3.csv","psycho","Lentiform Loewenfeld","3.3.14","no","패딩","artifactual","similar-environmental","0","None","NA","n","NA","a","None","n","0.028600000398000702","NA","812.1363000000201","NA","990.890699999909","0.028600000398000702","1226.1695000006584","2","psycho","1024","2","48000","-16","experiment","3","odd","겨울","natural","NA","65190.44239999948","23810.062099999413","23809.96789999972","NA","22996.162399999776","16206.633199999487","23809.11599999945","NA","64474.75719999966","16263.69639999939","66523.00269999978","66523.38109999982","17256.657500000074","64685.402899999644","NA","65295.83339999954","64466.571799999656","Extended template","0","0.7139000026581925","19","yes","1024"
"0","0","0.037295000128870014","0.037295000128870014","white","yes","psycho","psycho","psycho","0","uniform","0","undefined","0","a","1","0","22","1","1","0","0","0","0","NA","22","0","22","22","0","22","1","22","22","Tue Dec  5 18:00:30 2023","A template containing a practice and an experimental phase","yes","TalkFile_언어학과심리실험_B조_기말과제용심리실험.osexp.osexp","C:\Users\rober\OneDrive\Documents\Downloads","no","mono","no","18","no","black","no","yes","768","psycho","19","19","0","C:/Users/rober/OneDrive/바탕 화면/subject-3.csv","psycho","Lentiform Loewenfeld","3.3.14","no","프린터","artifactual","similar-environmental","0","None","NA","n","NA","a","None","a","0.03199999991920777","NA","812.1363000000201","NA","990.890699999909","0.03199999991920777","3309.4537000006385","2","psycho","1024","2","48000","-16","experiment","3","odd","종이","artifactual","NA","67378.96439999985","23810.062099999413","23809.96789999972","NA","22996.162399999776","16206.633199999487","23809.11599999945","NA","66664.28389999965","16263.69639999939","70796.61149999993","70796.98629999984","17256.657500000074","66874.24759999977","NA","67486.04879999948","66655.98520000002","Extended template","0","0.7459000025774003","20","yes","1024"
"0","0","0.03702380967089474","0.03702380967089474","white","yes","psycho","psycho","psycho","0","uniform","0","undefined","0","x","1","0","23","1","1","0","0","0","0","NA","23","0","23","23","0","23","1","23","23","Tue Dec  5 18:00:30 2023","A template containing a practice and an experimental phase","yes","TalkFile_언어학과심리실험_B조_기말과제용심리실험.osexp.osexp","C:\Users\rober\OneDrive\Documents\Downloads","no","mono","no","18","no","black","no","yes","768","psycho","20","20","0","C:/Users/rober/OneDrive/바탕 화면/subject-3.csv","psycho","Lentiform Loewenfeld","3.3.14","no","폭풍","natural","non-word","0","None","NA","n","NA","a","None","x","0.031600000511389226","NA","812.1363000000201","NA","990.890699999909","0.031600000511389226","1837.7599999994272","2","psycho","1024","2","48000","-16","experiment","3","odd","섬강","non-word","NA","71651.66599999975","23810.062099999413","23809.96789999972","NA","22996.162399999776","16206.633199999487","23809.11599999945","NA","70938.24359999962","16263.69639999939","73596.62299999945","73597.00929999963","17256.657500000074","71146.0578999995","NA","71757.20050000018","70930.0204000001","Extended template","0","0.7775000030887895","21","yes","1024"
"0","0","0.03714545466044166","0.03714545466044166","white","yes","psycho","psycho","psycho","0","uniform","0","undefined","0","a","1","0","24","1","1","0","0","0","0","NA","24","0","24","24","0","24","1","24","24","Tue Dec  5 18:00:30 2023","A template containing a practice and an experimental phase","yes","TalkFile_언어학과심리실험_B조_기말과제용심리실험.osexp.osexp","C:\Users\rober\OneDrive\Documents\Downloads","no","mono","no","18","no","black","no","yes","768","psycho","21","21","0","C:/Users/rober/OneDrive/바탕 화면/subject-3.csv","psycho","Lentiform Loewenfeld","3.3.14","no","성냥","artifactual","same phoneme","0","None","NA","n","NA","a","None","a","0.03969999944092706","NA","812.1363000000201","NA","990.890699999909","0.03969999944092706","911.8861999995715","2","psycho","1024","2","48000","-16","experiment","3","odd","성적표","artifactual","NA","74450.38719999956","23810.062099999413","23809.96789999972","NA","22996.162399999776","16206.633199999487","23809.11599999945","NA","73737.3837999994","16263.69639999939","75469.61379999993","75470.03619999942","17256.657500000074","73945.37089999995","NA","74556.2190999999","73729.85789999984","Extended template","0","0.8172000025297166","22","yes","1024"
"0","0","0.03723913054557709","0.03723913054557709","white","yes","psycho","psycho","psycho","0","uniform","0","undefined","0","a","1","0","25","1","1","0","0","0","0","NA","25","0","25","25","0","25","1","25","25","Tue Dec  5 18:00:30 2023","A template containing a practice and an experimental phase","yes","TalkFile_언어학과심리실험_B조_기말과제용심리실험.osexp.osexp","C:\Users\rober\OneDrive\Documents\Downloads","no","mono","no","18","no","black","no","yes","768","psycho","22","22","0","C:/Users/rober/OneDrive/바탕 화면/subject-3.csv","psycho","Lentiform Loewenfeld","3.3.14","no","바람","natural","similar-environmental","0","None","NA","n","NA","a","None","a","0.0393000000185566","NA","812.1363000000201","NA","990.890699999909","0.0393000000185566","2284.4488999999157","2","psycho","1024","2","48000","-16","experiment","3","odd","창문","artifactual","NA","76337.03759999934","23810.062099999413","23809.96789999972","NA","22996.162399999776","16206.633199999487","23809.11599999945","NA","75621.58360000013","16263.69639999939","78728.42649999984","78728.80900000018","17256.657500000074","75829.59399999981","NA","76443.01730000007","75613.72109999956","Extended template","0","0.8565000025482732","23","yes","1024"
"0","0","0.03683333344846081","0.03683333344846081","white","yes","psycho","psycho","psycho","0","uniform","0","undefined","0","a","1","0","26","1","1","0","0","0","0","NA","26","0","26","26","0","26","1","26","26","Tue Dec  5 18:00:30 2023","A template containing a practice and an experimental phase","yes","TalkFile_언어학과심리실험_B조_기말과제용심리실험.osexp.osexp","C:\Users\rober\OneDrive\Documents\Downloads","no","mono","no","18","no","black","no","yes","768","psycho","23","23","0","C:/Users/rober/OneDrive/바탕 화면/subject-3.csv","psycho","Lentiform Loewenfeld","3.3.14","no","호수","natural","no-correlation","0","None","NA","n","NA","a","None","a","0.02750000021478627","NA","812.1363000000201","NA","990.890699999909","0.02750000021478627","825.4467000006116","2","psycho","1024","2","48000","-16","experiment","3","odd","화장실","artifactual","NA","79579.53259999977","23810.062099999413","23809.96789999972","NA","22996.162399999776","16206.633199999487","23809.11599999945","NA","78866.08530000012","16263.69639999939","80511.78129999971","80512.18019999942","17256.657500000074","79073.88489999995","NA","79685.3814999995","78857.81749999934","Extended template","0","0.8840000027630595","24","yes","1024"
"0","0","0.036708000115759205","0.036708000115759205","white","yes","psycho","psycho","psycho","0","uniform","0","undefined","0","n","1","0","27","1","1","0","0","0","0","NA","27","0","27","27","0","27","1","27","27","Tue Dec  5 18:00:30 2023","A template containing a practice and an experimental phase","yes","TalkFile_언어학과심리실험_B조_기말과제용심리실험.osexp.osexp","C:\Users\rober\OneDrive\Documents\Downloads","no","mono","no","18","no","black","no","yes","768","psycho","24","24","0","C:/Users/rober/OneDrive/바탕 화면/subject-3.csv","psycho","Lentiform Loewenfeld","3.3.14","no","바다","natural","same phoneme","0","None","NA","n","NA","a","None","n","0.03370000013092067","NA","812.1363000000201","NA","990.890699999909","0.03370000013092067","1736.9020999994973","2","psycho","1024","2","48000","-16","experiment","3","odd","바퀴벌레","natural","NA","81368.4620999993","23810.062099999413","23809.96789999972","NA","22996.162399999776","16206.633199999487","23809.11599999945","NA","80654.23370000007","16263.69639999939","83211.84709999943","83212.40129999933","17256.657500000074","80862.88669999977","NA","81473.85329999997","80645.73010000004","Extended template","0","0.9177000028939801","25","yes","1024"
"0","0","0.03636153856971829","0.03636153856971829","white","yes","psycho","psycho","psycho","0","uniform","0","undefined","0","a","1","0","28","1","1","0","0","0","0","NA","28","0","28","28","0","28","1","28","28","Tue Dec  5 18:00:30 2023","A template containing a practice and an experimental phase","yes","TalkFile_언어학과심리실험_B조_기말과제용심리실험.osexp.osexp","C:\Users\rober\OneDrive\Documents\Downloads","no","mono","no","18","no","black","no","yes","768","psycho","25","25","0","C:/Users/rober/OneDrive/바탕 화면/subject-3.csv","psycho","Lentiform Loewenfeld","3.3.14","no","꽃","natural","no-correlation","0","None","NA","n","NA","a","None","a","0.02769999991869554","NA","812.1363000000201","NA","990.890699999909","0.02769999991869554","7306.210799999462","2","psycho","1024","2","48000","-16","experiment","3","odd","경주","artifactual","NA","84065.30079999994","23810.062099999413","23809.96789999972","NA","22996.162399999776","16206.633199999487","23809.11599999945","NA","83350.66939999978","16263.69639999939","91478.19639999943","91478.58899999937","17256.657500000074","83558.61619999996","NA","84170.99229999985","83341.42479999992","Extended template","0","0.9454000028126757","26","yes","1024"
"0","0","0.03602962971301706","0.03602962971301706","white","yes","psycho","psycho","psycho","0","uniform","0","undefined","0","n","1","0","29","1","1","0","0","0","0","NA","29","0","29","29","0","29","1","29","29","Tue Dec  5 18:00:30 2023","A template containing a practice and an experimental phase","yes","TalkFile_언어학과심리실험_B조_기말과제용심리실험.osexp.osexp","C:\Users\rober\OneDrive\Documents\Downloads","no","mono","no","18","no","black","no","yes","768","psycho","26","26","0","C:/Users/rober/OneDrive/바탕 화면/subject-3.csv","psycho","Lentiform Loewenfeld","3.3.14","no","오일","natural","same phoneme","0","None","NA","n","NA","a","None","n","0.027399999438785017","NA","812.1363000000201","NA","990.890699999909","0.027399999438785017","2670.601699999679","2","psycho","1024","2","48000","-16","experiment","3","odd","오리","natural","NA","92338.66699999999","23810.062099999413","23809.96789999972","NA","22996.162399999776","16206.633199999487","23809.11599999945","NA","91615.95149999994","16263.69639999939","95117.13169999985","95117.53520000001","17256.657500000074","91832.27449999959","NA","92445.57629999964","91607.86439999993","Extended template","0","0.9728000022514607","27","yes","1024"
"0","0","0.03577500007954119","0.03577500007954119","white","yes","psycho","psycho","psycho","0","uniform","0","undefined","0","n","1","0","30","1","1","0","0","0","0","NA","30","0","30","30","0","30","1","30","30","Tue Dec  5 18:00:30 2023","A template containing a practice and an experimental phase","yes","TalkFile_언어학과심리실험_B조_기말과제용심리실험.osexp.osexp","C:\Users\rober\OneDrive\Documents\Downloads","no","mono","no","18","no","black","no","yes","768","psycho","27","27","0","C:/Users/rober/OneDrive/바탕 화면/subject-3.csv","psycho","Lentiform Loewenfeld","3.3.14","no","박쥐","natural","similar-environmental","0","None","NA","n","NA","a","None","n","0.02889999997569248","NA","812.1363000000201","NA","990.890699999909","0.02889999997569248","1581.196399999506","2","psycho","1024","2","48000","-16","experiment","3","odd","동굴","natural","NA","95980.04299999957","23810.062099999413","23809.96789999972","NA","22996.162399999776","16206.633199999487","23809.11599999945","NA","95262.48289999967","16263.69639999939","97667.45499999978","97667.89559999961","17256.657500000074","95474.81579999931","NA","96085.2378999998","95254.94040000012","Extended template","0","1.0017000022271532","28","yes","1024"
"0","0","0.03565517250435419","0.03565517250435419","white","yes","psycho","psycho","psycho","0","uniform","0","undefined","0","n","1","0","31","1","1","0","0","0","0","NA","31","0","31","31","0","31","1","31","31","Tue Dec  5 18:00:30 2023","A template containing a practice and an experimental phase","yes","TalkFile_언어학과심리실험_B조_기말과제용심리실험.osexp.osexp","C:\Users\rober\OneDrive\Documents\Downloads","no","mono","no","18","no","black","no","yes","768","psycho","28","28","0","C:/Users/rober/OneDrive/바탕 화면/subject-3.csv","psycho","Lentiform Loewenfeld","3.3.14","no","소방서","artifactual","same phoneme","0","None","NA","n","NA","a","None","n","0.03230000039911829","NA","812.1363000000201","NA","990.890699999909","0.03230000039911829","10144.828499999683","2","psycho","1024","2","48000","-16","experiment","3","odd","소나무","natural","NA","98524.18529999978","23810.062099999413","23809.96789999972","NA","22996.162399999776","16206.633199999487","23809.11599999945","NA","97810.41199999981","16263.69639999939","108777.32969999942","108777.79180000015","17256.657500000074","98018.53709999978","NA","98631.23429999995","97800.95809999967","Extended template","0","1.0340000026262715","29","yes","1024"
"0","0","0.035480000103173856","0.035480000103173856","white","yes","psycho","psycho","psycho","0","uniform","0","undefined","0","a","1","0","32","1","1","0","0","0","0","NA","32","0","32","32","0","32","1","32","32","Tue Dec  5 18:00:30 2023","A template containing a practice and an experimental phase","yes","TalkFile_언어학과심리실험_B조_기말과제용심리실험.osexp.osexp","C:\Users\rober\OneDrive\Documents\Downloads","no","mono","no","18","no","black","no","yes","768","psycho","29","29","0","C:/Users/rober/OneDrive/바탕 화면/subject-3.csv","psycho","Lentiform Loewenfeld","3.3.14","no","학적","artifactual","same phoneme","0","None","NA","n","NA","a","None","a","0.0304000004689442","NA","812.1363000000201","NA","990.890699999909","0.0304000004689442","754.0564999999478","2","psycho","1024","2","48000","-16","experiment","3","odd","학술","artifactual","NA","109655.86900000017","23810.062099999413","23809.96789999972","NA","22996.162399999776","16206.633199999487","23809.11599999945","NA","108942.67409999974","16263.69639999939","110516.82509999955","110517.3079999995","17256.657500000074","109150.4348999997","NA","109761.69609999942","108934.14779999966","Extended template","0","1.0644000030952157","30","yes","1024"
"0","0","0.03521290331756914","0.03521290331756914","white","yes","psycho","psycho","psycho","0","uniform","0","undefined","0","n","1","0","33","1","1","0","0","0","0","NA","33","0","33","33","0","33","1","33","33","Tue Dec  5 18:00:30 2023","A template containing a practice and an experimental phase","yes","TalkFile_언어학과심리실험_B조_기말과제용심리실험.osexp.osexp","C:\Users\rober\OneDrive\Documents\Downloads","no","mono","no","18","no","black","no","yes","768","psycho","30","30","0","C:/Users/rober/OneDrive/바탕 화면/subject-3.csv","psycho","Lentiform Loewenfeld","3.3.14","no","숲","natural","inclusive","0","None","NA","n","NA","a","None","n","0.02719999974942766","NA","812.1363000000201","NA","990.890699999909","0.02719999974942766","837.2080999997852","2","psycho","1024","2","48000","-16","experiment","3","odd","나무","natural","NA","111391.4119000001","23810.062099999413","23809.96789999972","NA","22996.162399999776","16206.633199999487","23809.11599999945","NA","110676.68279999998","16263.69639999939","112334.90139999958","112335.4948999995","17256.657500000074","110885.18659999955","NA","111496.67789999966","110668.88639999978","Extended template","0","1.0916000028446433","31","yes","1024"
"0","0","0.0349562500907723","0.0349562500907723","white","yes","psycho","psycho","psycho","0","uniform","0","undefined","0","n","1","0","34","1","1","0","0","0","0","NA","34","0","34","34","0","34","1","34","34","Tue Dec  5 18:00:30 2023","A template containing a practice and an experimental phase","yes","TalkFile_언어학과심리실험_B조_기말과제용심리실험.osexp.osexp","C:\Users\rober\OneDrive\Documents\Downloads","no","mono","no","18","no","black","no","yes","768","psycho","31","31","0","C:/Users/rober/OneDrive/바탕 화면/subject-3.csv","psycho","Lentiform Loewenfeld","3.3.14","no","언덕","natural","no-correlation","0","None","NA","n","NA","a","None","n","0.027000000060070306","NA","812.1363000000201","NA","990.890699999909","0.027000000060070306","579.2195000003558","2","psycho","1024","2","48000","-16","experiment","3","odd","고양이","natural","NA","113272.94239999991","23810.062099999413","23809.96789999972","NA","22996.162399999776","16206.633199999487","23809.11599999945","NA","112558.9828000002","16263.69639999939","113958.72719999988","113959.16649999982","17256.657500000074","112767.04269999937","NA","113378.50879999952","112549.74609999954","Extended template","0","1.1186000029047136","32","yes","1024"
"0","0","0.034775757658335904","0.034775757658335904","white","yes","psycho","psycho","psycho","0","uniform","0","undefined","0","n","1","0","35","1","1","0","0","0","0","NA","35","0","35","35","0","35","1","35","35","Tue Dec  5 18:00:30 2023","A template containing a practice and an experimental phase","yes","TalkFile_언어학과심리실험_B조_기말과제용심리실험.osexp.osexp","C:\Users\rober\OneDrive\Documents\Downloads","no","mono","no","18","no","black","no","yes","768","psycho","32","32","0","C:/Users/rober/OneDrive/바탕 화면/subject-3.csv","psycho","Lentiform Loewenfeld","3.3.14","no","등산로","artifactual","similar-environmental","0","None","NA","n","NA","a","None","n","0.02899999982037116","NA","812.1363000000201","NA","990.890699999909","0.02899999982037116","1258.6963000003452","2","psycho","1024","2","48000","-16","experiment","3","odd","산","natural","NA","114811.45239999933","23810.062099999413","23809.96789999972","NA","22996.162399999776","16206.633199999487","23809.11599999945","NA","114096.56110000014","16263.69639999939","116177.88000000018","116178.36139999963","17256.657500000074","114305.77790000007","NA","114918.14949999934","114088.89589999945","Extended template","0","1.1476000027250848","33","yes","1024"
"0","0","0.03465588243403438","0.03465588243403438","white","yes","psycho","psycho","psycho","0","uniform","0","undefined","0","a","1","0","36","1","1","0","0","0","0","NA","36","0","36","36","0","36","1","36","36","Tue Dec  5 18:00:30 2023","A template containing a practice and an experimental phase","yes","TalkFile_언어학과심리실험_B조_기말과제용심리실험.osexp.osexp","C:\Users\rober\OneDrive\Documents\Downloads","no","mono","no","18","no","black","no","yes","768","psycho","33","33","0","C:/Users/rober/OneDrive/바탕 화면/subject-3.csv","psycho","Lentiform Loewenfeld","3.3.14","no","전기","natural","similar-environmental","0","None","NA","n","NA","a","None","a","0.030700000032084063","NA","812.1363000000201","NA","990.890699999909","0.030700000032084063","779.0696999991196","2","psycho","1024","2","48000","-16","experiment","3","odd","전선","artifactual","NA","117031.21359999932","23810.062099999413","23809.96789999972","NA","22996.162399999776","16206.633199999487","23809.11599999945","NA","116318.48399999944","16263.69639999939","117917.3297999996","117917.84370000006","17256.657500000074","116525.96629999971","NA","117137.0863000002","116310.3990999998","Extended template","0","1.1783000027571688","34","yes","1024"
"0","0","0.03444571435289358","0.03444571435289358","white","yes","psycho","psycho","psycho","0","uniform","0","undefined","0","n","1","0","37","1","1","0","0","0","0","NA","37","0","37","37","0","37","1","37","37","Tue Dec  5 18:00:30 2023","A template containing a practice and an experimental phase","yes","TalkFile_언어학과심리실험_B조_기말과제용심리실험.osexp.osexp","C:\Users\rober\OneDrive\Documents\Downloads","no","mono","no","18","no","black","no","yes","768","psycho","34","34","0","C:/Users/rober/OneDrive/바탕 화면/subject-3.csv","psycho","Lentiform Loewenfeld","3.3.14","no","악어","natural","similar-environmental","0","None","NA","n","NA","a","None","n","0.02729999959410634","NA","812.1363000000201","NA","990.890699999909","0.02729999959410634","617.0096999994712","2","psycho","1024","2","48000","-16","experiment","3","odd","늪","natural","NA","118774.70989999984","23810.062099999413","23809.96789999972","NA","22996.162399999776","16206.633199999487","23809.11599999945","NA","118059.33099999948","16263.69639999939","119501.39949999994","119501.90849999944","17256.657500000074","118269.79510000002","NA","118883.2510000002","118051.63579999952","Extended template","0","1.2056000023512752","35","yes","1024"
"0","0","0.03426944451611133","0.03426944451611133","white","yes","psycho","psycho","psycho","0","uniform","0","undefined","0","n","1","0","38","1","1","0","0","0","0","NA","38","0","38","38","0","38","1","38","38","Tue Dec  5 18:00:30 2023","A template containing a practice and an experimental phase","yes","TalkFile_언어학과심리실험_B조_기말과제용심리실험.osexp.osexp","C:\Users\rober\OneDrive\Documents\Downloads","no","mono","no","18","no","black","no","yes","768","psycho","35","35","0","C:/Users/rober/OneDrive/바탕 화면/subject-3.csv","psycho","Lentiform Loewenfeld","3.3.14","no","밤하늘","natural","no-correlation","0","None","NA","n","NA","a","None","n","0.028100000228732824","NA","812.1363000000201","NA","990.890699999909","0.028100000228732824","998.5782000003383","2","psycho","1024","2","48000","-16","experiment","3","odd","바위","natural","NA","120357.90819999966","23810.062099999413","23809.96789999972","NA","22996.162399999776","16206.633199999487","23809.11599999945","NA","119644.80839999943","16263.69639999939","121464.14959999948","121464.6303999998","17256.657500000074","119853.32029999973","NA","120464.38099999978","119637.04280000002","Extended template","0","1.233700002580008","36","yes","1024"
"0","0","0.03407027034503502","0.03407027034503502","white","yes","psycho","psycho","psycho","0","uniform","0","undefined","0","n","1","0","39","1","1","0","0","0","0","NA","39","0","39","39","0","39","1","39","39","Tue Dec  5 18:00:30 2023","A template containing a practice and an experimental phase","yes","TalkFile_언어학과심리실험_B조_기말과제용심리실험.osexp.osexp","C:\Users\rober\OneDrive\Documents\Downloads","no","mono","no","18","no","black","no","yes","768","psycho","36","36","0","C:/Users/rober/OneDrive/바탕 화면/subject-3.csv","psycho","Lentiform Loewenfeld","3.3.14","no","물고기","natural","inclusive","0","None","NA","n","NA","a","None","n","0.026900000186287798","NA","812.1363000000201","NA","990.890699999909","0.026900000186287798","1349.2840999997425","2","psycho","1024","2","48000","-16","experiment","3","odd","연어","natural","NA","122319.07839999985","23810.062099999413","23809.96789999972","NA","22996.162399999776","16206.633199999487","23809.11599999945","NA","121605.23740000007","16263.69639999939","123775.42089999952","123776.16510000007","17256.657500000074","121813.92779999987","NA","122425.06709999999","121597.0198999994","Extended template","0","1.2606000027662958","37","yes","1024"
"0","0","0.033892105349399286","0.033892105349399286","white","yes","psycho","psycho","psycho","0","uniform","0","undefined","0","n","1","0","40","1","1","0","0","0","0","NA","40","0","40","40","0","40","1","40","40","Tue Dec  5 18:00:30 2023","A template containing a practice and an experimental phase","yes","TalkFile_언어학과심리실험_B조_기말과제용심리실험.osexp.osexp","C:\Users\rober\OneDrive\Documents\Downloads","no","mono","no","18","no","black","no","yes","768","psycho","37","37","0","C:/Users/rober/OneDrive/바탕 화면/subject-3.csv","psycho","Lentiform Loewenfeld","3.3.14","no","태양계","natural","inclusive","0","None","NA","n","NA","a","None","n","0.027300000510877","NA","812.1363000000201","NA","990.890699999909","0.027300000510877","621.8988000000536","2","psycho","1024","2","48000","-16","experiment","3","odd","목성","natural","NA","124636.1052000002","23810.062099999413","23809.96789999972","NA","22996.162399999776","16206.633199999487","23809.11599999945","NA","123921.52009999973","16263.69639999939","125364.33189999935","125364.82590000014","17256.657500000074","124131.13479999993","NA","124741.41950000012","123913.02509999968","Extended template","0","1.2879000032771728","38","yes","1024"
"0","0","0.03401538469953289","0.03401538469953289","white","yes","psycho","psycho","psycho","0","uniform","0","undefined","0","n","1","0","41","1","1","0","0","0","0","NA","41","0","41","41","0","41","1","41","41","Tue Dec  5 18:00:30 2023","A template containing a practice and an experimental phase","yes","TalkFile_언어학과심리실험_B조_기말과제용심리실험.osexp.osexp","C:\Users\rober\OneDrive\Documents\Downloads","no","mono","no","18","no","black","no","yes","768","psycho","38","38","0","C:/Users/rober/OneDrive/바탕 화면/subject-3.csv","psycho","Lentiform Loewenfeld","3.3.14","no","호랑이","natural","same phoneme","0","None","NA","n","NA","a","None","n","0.03870000000461005","NA","812.1363000000201","NA","990.890699999909","0.03870000000461005","895.8528999992413","2","psycho","1024","2","48000","-16","experiment","3","odd","호수","natural","NA","126219.51449999961","23810.062099999413","23809.96789999972","NA","22996.162399999776","16206.633199999487","23809.11599999945","NA","125506.28379999944","16263.69639999939","127223.75229999944","127224.36579999977","17256.657500000074","125713.91669999957","NA","126326.53870000012","125498.25839999993","Extended template","0","1.3266000032817828","39","yes","1024"
"0","0","0.03386750008812669","0.03386750008812669","white","yes","psycho","psycho","psycho","0","uniform","0","undefined","0","n","1","0","42","1","1","0","0","0","0","NA","42","0","42","42","0","42","1","42","42","Tue Dec  5 18:00:30 2023","A template containing a practice and an experimental phase","yes","TalkFile_언어학과심리실험_B조_기말과제용심리실험.osexp.osexp","C:\Users\rober\OneDrive\Documents\Downloads","no","mono","no","18","no","black","no","yes","768","psycho","39","39","0","C:/Users/rober/OneDrive/바탕 화면/subject-3.csv","psycho","Lentiform Loewenfeld","3.3.14","no","상새고","non-word","non-word","0","None","NA","n","NA","a","None","n","0.02810000024328474","NA","812.1363000000201","NA","990.890699999909","0.02810000024328474","474.3678000004438","2","psycho","1024","2","48000","-16","experiment","3","odd","나뭇잎","natural","NA","128101.6783999994","23810.062099999413","23809.96789999972","NA","22996.162399999776","16206.633199999487","23809.11599999945","NA","127387.3937999997","16263.69639999939","128682.78279999958","128683.31859999945","17256.657500000074","127595.81809999963","NA","128207.29049999954","127379.89539999944","Extended template","0","1.3547000035250676","40","yes","1024"
"0","0","0.03466341473682494","0.03466341473682494","white","yes","psycho","psycho","psycho","0","uniform","0","undefined","0","a","1","0","43","1","1","0","0","0","0","NA","43","0","43","43","0","43","1","43","43","Tue Dec  5 18:00:30 2023","A template containing a practice and an experimental phase","yes","TalkFile_언어학과심리실험_B조_기말과제용심리실험.osexp.osexp","C:\Users\rober\OneDrive\Documents\Downloads","no","mono","no","18","no","black","no","yes","768","psycho","40","40","0","C:/Users/rober/OneDrive/바탕 화면/subject-3.csv","psycho","Lentiform Loewenfeld","3.3.14","no","국가","artifactual","inclusive","0","None","NA","n","NA","a","None","a","0.06650000068475492","NA","812.1363000000201","NA","990.890699999909","0.06650000068475492","849.8128999999608","2","psycho","1024","2","48000","-16","experiment","3","odd","대한민국","artifactual","NA","129563.88710000011","23810.062099999413","23809.96789999972","NA","22996.162399999776","16206.633199999487","23809.11599999945","NA","128849.77029999936","16263.69639999939","130521.1690999995","130522.20570000008","17256.657500000074","129058.41280000005","NA","129669.50889999952","128840.23699999944","Extended template","0","1.4212000042098225","41","yes","1024"
"0","0","0.03452619057584559","0.03452619057584559","white","yes","psycho","psycho","psycho","0","uniform","0","undefined","0","a","1","0","44","1","1","0","0","0","0","NA","44","0","44","44","0","44","1","44","44","Tue Dec  5 18:00:30 2023","A template containing a practice and an experimental phase","yes","TalkFile_언어학과심리실험_B조_기말과제용심리실험.osexp.osexp","C:\Users\rober\OneDrive\Documents\Downloads","no","mono","no","18","no","black","no","yes","768","psycho","41","41","0","C:/Users/rober/OneDrive/바탕 화면/subject-3.csv","psycho","Lentiform Loewenfeld","3.3.14","no","성적표","artifactual","same phoneme","0","None","NA","n","NA","a","None","a","0.02889999997569248","NA","812.1363000000201","NA","990.890699999909","0.02889999997569248","3295.6608000003907","2","psycho","1024","2","48000","-16","experiment","3","odd","성냥","artifactual","NA","131377.0321000002","23810.062099999413","23809.96789999972","NA","22996.162399999776","16206.633199999487","23809.11599999945","NA","130663.82969999994","16263.69639999939","134780.2832999996","134780.86269999947","17256.657500000074","130871.77100000008","NA","131483.5134999994","130654.63559999989","Extended template","0","1.450100004185515","42","yes","1024"
"0","0","0.03435813964410214","0.03435813964410214","white","yes","psycho","psycho","psycho","0","uniform","0","undefined","0","a","1","0","45","1","1","0","0","0","0","NA","45","0","45","45","0","45","1","45","45","Tue Dec  5 18:00:30 2023","A template containing a practice and an experimental phase","yes","TalkFile_언어학과심리실험_B조_기말과제용심리실험.osexp.osexp","C:\Users\rober\OneDrive\Documents\Downloads","no","mono","no","18","no","black","no","yes","768","psycho","42","42","0","C:/Users/rober/OneDrive/바탕 화면/subject-3.csv","psycho","Lentiform Loewenfeld","3.3.14","no","바람","natural","no-correlation","0","None","NA","n","NA","a","None","a","0.027300000510877","NA","812.1363000000201","NA","990.890699999909","0.027300000510877","3956.2895999997563","2","psycho","1024","2","48000","-16","experiment","3","odd","버스","artifactual","NA","135711.7115000001","23810.062099999413","23809.96789999972","NA","22996.162399999776","16206.633199999487","23809.11599999945","NA","134993.7073000001","16263.69639999939","139777.0101999995","139777.57010000004","17256.657500000074","135203.0009","NA","135819.56290000016","134980.69539999962","Extended template","0","1.477400004696392","43","yes","1024"
"0","0","0.03428863647174942","0.03428863647174942","white","yes","psycho","psycho","psycho","0","uniform","0","undefined","0","n","1","0","46","1","1","0","0","0","0","NA","46","0","46","46","0","46","1","46","46","Tue Dec  5 18:00:30 2023","A template containing a practice and an experimental phase","yes","TalkFile_언어학과심리실험_B조_기말과제용심리실험.osexp.osexp","C:\Users\rober\OneDrive\Documents\Downloads","no","mono","no","18","no","black","no","yes","768","psycho","43","43","0","C:/Users/rober/OneDrive/바탕 화면/subject-3.csv","psycho","Lentiform Loewenfeld","3.3.14","no","경주","artifactual","no-correlation","0","None","NA","n","NA","a","None","n","0.031300000060582533","NA","812.1363000000201","NA","990.890699999909","0.031300000060582533","719.1081000000704","2","psycho","1024","2","48000","-16","experiment","3","odd","소나무","natural","NA","140630.94999999975","23810.062099999413","23809.96789999972","NA","22996.162399999776","16206.633199999487","23809.11599999945","NA","139916.4928","16263.69639999939","141457.86020000014","141458.41959999962","17256.657500000074","140124.8784999998","NA","140736.64370000007","139908.6966999994","Extended template","0","1.5087000047569745","44","yes","1024"
"0","0","0.03420444455712439","0.03420444455712439","white","yes","psycho","psycho","psycho","0","uniform","0","undefined","0","n","1","0","47","1","1","0","0","0","0","NA","47","0","47","47","0","47","1","47","47","Tue Dec  5 18:00:30 2023","A template containing a practice and an experimental phase","yes","TalkFile_언어학과심리실험_B조_기말과제용심리실험.osexp.osexp","C:\Users\rober\OneDrive\Documents\Downloads","no","mono","no","18","no","black","no","yes","768","psycho","44","44","0","C:/Users/rober/OneDrive/바탕 화면/subject-3.csv","psycho","Lentiform Loewenfeld","3.3.14","no","꽃","natural","inclusive","0","None","NA","n","NA","a","None","n","0.030500000313622877","NA","812.1363000000201","NA","990.890699999909","0.030500000313622877","582.5794000002206","2","psycho","1024","2","48000","-16","experiment","3","odd","해바라기","natural","NA","142311.79579999935","23810.062099999413","23809.96789999972","NA","22996.162399999776","16206.633199999487","23809.11599999945","NA","141596.38819999964","16263.69639999939","143001.26229999933","143001.86450000003","17256.657500000074","141806.4843000002","NA","142417.22239999945","141587.81409999938","Extended template","0","1.5392000050705974","45","yes","1024"
"0","0","0.03453913055004112","0.03453913055004112","white","yes","psycho","psycho","psycho","0","uniform","0","undefined","0","a","1","0","48","1","1","0","0","0","0","NA","48","0","48","48","0","48","1","48","48","Tue Dec  5 18:00:30 2023","A template containing a practice and an experimental phase","yes","TalkFile_언어학과심리실험_B조_기말과제용심리실험.osexp.osexp","C:\Users\rober\OneDrive\Documents\Downloads","no","mono","no","18","no","black","no","yes","768","psycho","45","45","0","C:/Users/rober/OneDrive/바탕 화면/subject-3.csv","psycho","Lentiform Loewenfeld","3.3.14","no","기계","artifactual","inclusive","0","None","NA","n","NA","a","None","a","0.04960000023129396","NA","812.1363000000201","NA","990.890699999909","0.04960000023129396","603.4640999996627","2","psycho","1024","2","48000","-16","experiment","3","odd","컴퓨터","artifactual","NA","143859.30539999937","23810.062099999413","23809.96789999972","NA","22996.162399999776","16206.633199999487","23809.11599999945","NA","143144.5864999996","16263.69639999939","144569.6982999998","144570.43439999962","17256.657500000074","143354.12259999977","NA","143965.07250000013","143134.3825999993","Extended template","0","1.5888000053018914","46","yes","1024"
"0","0","0.034389361819194164","0.034389361819194164","white","yes","psycho","psycho","psycho","0","uniform","0","undefined","0","a","1","0","49","1","1","0","0","0","0","NA","49","0","49","49","0","49","1","49","49","Tue Dec  5 18:00:30 2023","A template containing a practice and an experimental phase","yes","TalkFile_언어학과심리실험_B조_기말과제용심리실험.osexp.osexp","C:\Users\rober\OneDrive\Documents\Downloads","no","mono","no","18","no","black","no","yes","768","psycho","46","46","0","C:/Users/rober/OneDrive/바탕 화면/subject-3.csv","psycho","Lentiform Loewenfeld","3.3.14","no","로봇","artifactual","same phoneme","0","None","NA","n","NA","a","None","a","0.027500000200234354","NA","812.1363000000201","NA","990.890699999909","0.027500000200234354","590.8795000004757","2","psycho","1024","2","48000","-16","experiment","3","odd","로켓","artifactual","NA","145425.96330000015","23810.062099999413","23809.96789999972","NA","22996.162399999776","16206.633199999487","23809.11599999945","NA","144711.6079999996","16263.69639999939","146123.58919999952","146124.1629999995","17256.657500000074","144919.73899999994","NA","145531.4559999997","144703.1191999995","Extended template","0","1.6163000055021257","47","yes","1024"
"0","0","0.034250000112933776","0.034250000112933776","white","yes","psycho","psycho","psycho","0","uniform","0","undefined","0","n","1","0","50","1","1","0","0","0","0","NA","50","0","50","50","0","50","1","50","50","Tue Dec  5 18:00:30 2023","A template containing a practice and an experimental phase","yes","TalkFile_언어학과심리실험_B조_기말과제용심리실험.osexp.osexp","C:\Users\rober\OneDrive\Documents\Downloads","no","mono","no","18","no","black","no","yes","768","psycho","47","47","0","C:/Users/rober/OneDrive/바탕 화면/subject-3.csv","psycho","Lentiform Loewenfeld","3.3.14","no","해질녘","natural","same phoneme","0","None","NA","n","NA","a","None","n","0.02769999991869554","NA","812.1363000000201","NA","990.890699999909","0.02769999991869554","713.4129000005778","2","psycho","1024","2","48000","-16","experiment","3","odd","해마","natural","NA","146977.49389999988","23810.062099999413","23809.96789999972","NA","22996.162399999776","16206.633199999487","23809.11599999945","NA","146264.20319999944","16263.69639999939","147797.38879999967","147797.97179999968","17256.657500000074","146471.9366999998","NA","147082.7083999993","146256.10270000016","Extended template","0","1.6440000054208213","48","yes","1024"
"0","0","0.03471224501503902","0.03471224501503902","white","yes","psycho","psycho","psycho","0","uniform","0","undefined","0","n","1","0","51","1","1","0","0","0","0","NA","51","0","51","51","0","51","1","51","51","Tue Dec  5 18:00:30 2023","A template containing a practice and an experimental phase","yes","TalkFile_언어학과심리실험_B조_기말과제용심리실험.osexp.osexp","C:\Users\rober\OneDrive\Documents\Downloads","no","mono","no","18","no","black","no","yes","768","psycho","48","48","0","C:/Users/rober/OneDrive/바탕 화면/subject-3.csv","psycho","Lentiform Loewenfeld","3.3.14","no","세금","artifactual","same phoneme","0","None","NA","n","NA","a","None","n","0.05690000031609088","NA","812.1363000000201","NA","990.890699999909","0.05690000031609088","614.480799999903","2","psycho","1024","2","48000","-16","experiment","3","odd","세포","natural","NA","148653.9335999996","23810.062099999413","23809.96789999972","NA","22996.162399999776","16206.633199999487","23809.11599999945","NA","147940.76789999963","16263.69639999939","149375.1625999994","149376.63410000005","17256.657500000074","148148.6017999996","NA","148759.2797999996","147932.32199999967","Extended template","0","1.7009000057369121","49","yes","1024"
"0","0","0.03521800012109452","0.03521800012109452","white","yes","psycho","psycho","psycho","0","uniform","0","undefined","0","n","1","0","52","1","1","0","0","0","0","NA","52","0","52","52","0","52","1","52","52","Tue Dec  5 18:00:30 2023","A template containing a practice and an experimental phase","yes","TalkFile_언어학과심리실험_B조_기말과제용심리실험.osexp.osexp","C:\Users\rober\OneDrive\Documents\Downloads","no","mono","no","18","no","black","no","yes","768","psycho","49","49","0","C:/Users/rober/OneDrive/바탕 화면/subject-3.csv","psycho","Lentiform Loewenfeld","3.3.14","no","물고기","natural","no-correlation","0","None","NA","n","NA","a","None","n","0.06000000031781383","NA","812.1363000000201","NA","990.890699999909","0.06000000031781383","1536.7752000001783","2","psycho","1024","2","48000","-16","experiment","3","odd","밤하늘","natural","NA","150257.5343999997","23810.062099999413","23809.96789999972","NA","22996.162399999776","16206.633199999487","23809.11599999945","NA","149544.3276999995","16263.69639999939","151903.99439999965","151906.1972999998","17256.657500000074","149752.28590000008","NA","150363.25169999964","149534.86019999947","Extended template","0","1.760900006054726","50","yes","1024"
"0","0","0.035160784422580894","0.035160784422580894","white","yes","psycho","psycho","psycho","0","uniform","0","undefined","0","n","1","0","53","1","1","0","0","0","0","NA","53","0","53","53","0","53","1","53","53","Tue Dec  5 18:00:30 2023","A template containing a practice and an experimental phase","yes","TalkFile_언어학과심리실험_B조_기말과제용심리실험.osexp.osexp","C:\Users\rober\OneDrive\Documents\Downloads","no","mono","no","18","no","black","no","yes","768","psycho","50","50","0","C:/Users/rober/OneDrive/바탕 화면/subject-3.csv","psycho","Lentiform Loewenfeld","3.3.14","no","해마","natural","same phoneme","0","None","NA","n","NA","a","None","n","0.032299999496899545","NA","812.1363000000201","NA","990.890699999909","0.032299999496899545","562.7007000002777","2","psycho","1024","2","48000","-16","experiment","3","odd","해질녘","natural","NA","152817.82919999934","23810.062099999413","23809.96789999972","NA","22996.162399999776","16206.633199999487","23809.11599999945","NA","152104.07229999965","16263.69639999939","153494.95320000005","153495.6616999998","17256.657500000074","152311.7734999996","NA","152930.92499999967","152095.4431","Extended template","0","1.7932000055516255","51","yes","1024"
"0","0","0.03507500010681934","0.03507500010681934","white","yes","psycho","psycho","psycho","0","uniform","0","undefined","0","n","1","0","54","1","1","0","0","0","0","NA","54","0","54","54","0","54","1","54","54","Tue Dec  5 18:00:30 2023","A template containing a practice and an experimental phase","yes","TalkFile_언어학과심리실험_B조_기말과제용심리실험.osexp.osexp","C:\Users\rober\OneDrive\Documents\Downloads","no","mono","no","18","no","black","no","yes","768","psycho","51","51","0","C:/Users/rober/OneDrive/바탕 화면/subject-3.csv","psycho","Lentiform Loewenfeld","3.3.14","no","곡물","natural","inclusive","0","None","NA","n","NA","a","None","n","0.030700000002980232","NA","812.1363000000201","NA","990.890699999909","0.030700000002980232","792.8693000003404","2","psycho","1024","2","48000","-16","experiment","3","odd","밀","natural","NA","154347.6789999995","23810.062099999413","23809.96789999972","NA","22996.162399999776","16206.633199999487","23809.11599999945","NA","153635.0014999998","16263.69639999939","155247.94680000015","155248.58239999958","17256.657500000074","153842.87510000012","NA","154453.77149999968","153626.9945999993","Extended template","0","1.8239000055546057","52","yes","1024"
"0","0","0.034945283125331496","0.034945283125331496","white","yes","psycho","psycho","psycho","0","uniform","0","undefined","0","a","1","0","55","1","1","0","0","0","0","NA","55","0","55","55","0","55","1","55","55","Tue Dec  5 18:00:30 2023","A template containing a practice and an experimental phase","yes","TalkFile_언어학과심리실험_B조_기말과제용심리실험.osexp.osexp","C:\Users\rober\OneDrive\Documents\Downloads","no","mono","no","18","no","black","no","yes","768","psycho","52","52","0","C:/Users/rober/OneDrive/바탕 화면/subject-3.csv","psycho","Lentiform Loewenfeld","3.3.14","no","모자","artifactual","no-correlation","0","None","NA","n","NA","a","None","a","0.028200000087963417","NA","812.1363000000201","NA","990.890699999909","0.028200000087963417","649.5721000001358","2","psycho","1024","2","48000","-16","experiment","3","odd","마우스","artifactual","NA","156099.77209999942","23810.062099999413","23809.96789999972","NA","22996.162399999776","16206.633199999487","23809.11599999945","NA","155387.26119999954","16263.69639999939","156856.60740000004","156857.2229000001","17256.657500000074","155595.2972999994","NA","156205.75740000003","155378.9793999995","Extended template","0","1.8521000056425692","53","yes","1024"
"0","0","0.03484814824642618","0.03484814824642618","white","yes","psycho","psycho","psycho","0","uniform","0","undefined","0","n","1","0","56","1","1","0","0","0","0","NA","56","0","56","56","0","56","1","56","56","Tue Dec  5 18:00:30 2023","A template containing a practice and an experimental phase","yes","TalkFile_언어학과심리실험_B조_기말과제용심리실험.osexp.osexp","C:\Users\rober\OneDrive\Documents\Downloads","no","mono","no","18","no","black","no","yes","768","psycho","53","53","0","C:/Users/rober/OneDrive/바탕 화면/subject-3.csv","psycho","Lentiform Loewenfeld","3.3.14","no","동굴","natural","similar-environmental","0","None","NA","n","NA","a","None","n","0.029699999664444476","NA","812.1363000000201","NA","990.890699999909","0.029699999664444476","586.8393000000797","2","psycho","1024","2","48000","-16","experiment","3","odd","박쥐","natural","NA","157712.41099999953","23810.062099999413","23809.96789999972","NA","22996.162399999776","16206.633199999487","23809.11599999945","NA","156998.02869999985","16263.69639999939","158406.4368999998","158407.11190000002","17256.657500000074","157206.68719999958","NA","157818.3513999993","156990.5036","Extended template","0","1.8818000053070136","54","yes","1024"
"0","0","0.034716363733935975","0.034716363733935975","white","yes","psycho","psycho","psycho","0","uniform","0","undefined","0","a","1","0","57","1","1","0","0","0","0","NA","57","0","57","57","0","57","1","57","57","Tue Dec  5 18:00:30 2023","A template containing a practice and an experimental phase","yes","TalkFile_언어학과심리실험_B조_기말과제용심리실험.osexp.osexp","C:\Users\rober\OneDrive\Documents\Downloads","no","mono","no","18","no","black","no","yes","768","psycho","54","54","0","C:/Users/rober/OneDrive/바탕 화면/subject-3.csv","psycho","Lentiform Loewenfeld","3.3.14","no","로켓","artifactual","same phoneme","0","None","NA","n","NA","a","None","a","0.027600000059464946","NA","812.1363000000201","NA","990.890699999909","0.027600000059464946","569.3275000003341","2","psycho","1024","2","48000","-16","experiment","3","odd","로봇","artifactual","NA","159259.2520999997","23810.062099999413","23809.96789999972","NA","22996.162399999776","16206.633199999487","23809.11599999945","NA","158545.67359999963","16263.69639999939","159935.1485999996","159935.78489999982","17256.657500000074","158755.2175000001","NA","159364.6192999995","158537.7864000002","Extended template","0","1.9094000053664786","55","yes","1024"
"0","0","0.03474464295153926","0.03474464295153926","white","yes","psycho","psycho","psycho","0","uniform","0","undefined","0","n","1","0","58","1","1","0","0","0","0","NA","58","0","58","58","0","58","1","58","58","Tue Dec  5 18:00:30 2023","A template containing a practice and an experimental phase","yes","TalkFile_언어학과심리실험_B조_기말과제용심리실험.osexp.osexp","C:\Users\rober\OneDrive\Documents\Downloads","no","mono","no","18","no","black","no","yes","768","psycho","55","55","0","C:/Users/rober/OneDrive/바탕 화면/subject-3.csv","psycho","Lentiform Loewenfeld","3.3.14","no","전구","artifactual","similar-environmental","0","None","NA","n","NA","a","None","n","0.036299999919719994","NA","812.1363000000201","NA","990.890699999909","0.036299999919719994","552.7787000000826","2","psycho","1024","2","48000","-16","experiment","3","odd","빛","natural","NA","160789.89399999956","23810.062099999413","23809.96789999972","NA","22996.162399999776","16206.633199999487","23809.11599999945","NA","160076.47199999975","16263.69639999939","161449.36580000012","161450.08099999995","17256.657500000074","160285.06029999972","NA","160895.1191999995","160068.6915999995","Extended template","0","1.9457000052861986","56","yes","1024"
"0","0","0.034647368521275396","0.034647368521275396","white","yes","psycho","psycho","psycho","0","uniform","0","undefined","0","n","1","0","59","1","1","0","0","0","0","NA","59","0","59","59","0","59","1","59","59","Tue Dec  5 18:00:30 2023","A template containing a practice and an experimental phase","yes","TalkFile_언어학과심리실험_B조_기말과제용심리실험.osexp.osexp","C:\Users\rober\OneDrive\Documents\Downloads","no","mono","no","18","no","black","no","yes","768","psycho","56","56","0","C:/Users/rober/OneDrive/바탕 화면/subject-3.csv","psycho","Lentiform Loewenfeld","3.3.14","no","의자","artifactual","no-correlation","0","None","NA","n","NA","a","None","n","0.029200000426499173","NA","812.1363000000201","NA","990.890699999909","0.029200000426499173","546.6780000006256","2","psycho","1024","2","48000","-16","experiment","3","odd","행성","natural","NA","162328.0337999995","23810.062099999413","23809.96789999972","NA","22996.162399999776","16206.633199999487","23809.11599999945","NA","161611.45140000008","16263.69639999939","162982.95979999966","162983.64979999952","17256.657500000074","161820.67529999948","NA","162435.0306999995","161603.75999999995","Extended template","0","1.9749000057126977","57","yes","1024"
"0","0","0.03457413802180813","0.03457413802180813","white","yes","psycho","psycho","psycho","0","uniform","0","undefined","0","n","1","0","60","1","1","0","0","0","0","NA","60","0","60","60","0","60","1","60","60","Tue Dec  5 18:00:30 2023","A template containing a practice and an experimental phase","yes","TalkFile_언어학과심리실험_B조_기말과제용심리실험.osexp.osexp","C:\Users\rober\OneDrive\Documents\Downloads","no","mono","no","18","no","black","no","yes","768","psycho","57","57","0","C:/Users/rober/OneDrive/바탕 화면/subject-3.csv","psycho","Lentiform Loewenfeld","3.3.14","no","항구","artifactual","similar-environmental","0","None","NA","n","NA","a","None","n","0.03039999955217354","NA","812.1363000000201","NA","990.890699999909","0.03039999955217354","752.6135999996914","2","psycho","1024","2","48000","-16","experiment","3","odd","바다","natural","NA","163851.94729999965","23810.062099999413","23809.96789999972","NA","22996.162399999776","16206.633199999487","23809.11599999945","NA","163137.3604999999","16263.69639999939","164711.28349999982","164711.98490000007","17256.657500000074","163345.37240000008","NA","163957.35109999985","163128.71779999931","Extended template","0","2.0053000052648713","58","yes","1024"
"0","0","0.03452711873719867","0.03452711873719867","white","yes","psycho","psycho","psycho","0","uniform","0","undefined","0","a","1","0","61","1","1","0","0","0","0","NA","61","0","61","61","0","61","1","61","61","Tue Dec  5 18:00:30 2023","A template containing a practice and an experimental phase","yes","TalkFile_언어학과심리실험_B조_기말과제용심리실험.osexp.osexp","C:\Users\rober\OneDrive\Documents\Downloads","no","mono","no","18","no","black","no","yes","768","psycho","58","58","0","C:/Users/rober/OneDrive/바탕 화면/subject-3.csv","psycho","Lentiform Loewenfeld","3.3.14","no","안음풍","non-word","non-word","0","None","NA","n","NA","a","None","a","0.03180000022985041","NA","812.1363000000201","NA","990.890699999909","0.03180000022985041","569.3014999997104","2","psycho","1024","2","48000","-16","experiment","3","odd","의자","artifactual","NA","165599.84209999949","23810.062099999413","23809.96789999972","NA","22996.162399999776","16206.633199999487","23809.11599999945","NA","164852.60609999934","16263.69639999939","166277.0137999996","166277.7148999994","17256.657500000074","165060.4878999993","NA","165706.0167999998","164844.5766999994","Extended template","0","2.0371000054947217","59","yes","1024"
"0","0","0.03459166676584573","0.03459166676584573","white","yes","psycho","psycho","psycho","0","uniform","0","undefined","0","n","1","0","62","1","1","0","0","0","0","NA","62","0","62","62","0","62","1","62","62","Tue Dec  5 18:00:30 2023","A template containing a practice and an experimental phase","yes","TalkFile_언어학과심리실험_B조_기말과제용심리실험.osexp.osexp","C:\Users\rober\OneDrive\Documents\Downloads","no","mono","no","18","no","black","no","yes","768","psycho","59","59","0","C:/Users/rober/OneDrive/바탕 화면/subject-3.csv","psycho","Lentiform Loewenfeld","3.3.14","no","스노우보드","artifactual","no-correlation","0","None","NA","n","NA","a","None","n","0.0384000004560221","NA","812.1363000000201","NA","990.890699999909","0.0384000004560221","705.1335999995063","2","psycho","1024","2","48000","-16","experiment","3","odd","꽃","natural","NA","167132.88829999964","23810.062099999413","23809.96789999972","NA","22996.162399999776","16206.633199999487","23809.11599999945","NA","166419.17049999937","16263.69639999939","167944.66849999936","167945.3868999999","17256.657500000074","166626.8341999994","NA","167238.1991000002","166410.68279999946","Extended template","0","2.075500005950744","60","yes","1024"
"0","0","0.034465573856546965","0.034465573856546965","white","yes","psycho","psycho","psycho","0","uniform","0","undefined","0","n","1","0","63","1","1","0","0","0","0","NA","63","0","63","63","0","63","1","63","63","Tue Dec  5 18:00:30 2023","A template containing a practice and an experimental phase","yes","TalkFile_언어학과심리실험_B조_기말과제용심리실험.osexp.osexp","C:\Users\rober\OneDrive\Documents\Downloads","no","mono","no","18","no","black","no","yes","768","psycho","60","60","0","C:/Users/rober/OneDrive/바탕 화면/subject-3.csv","psycho","Lentiform Loewenfeld","3.3.14","no","풍차","artifactual","no-correlation","0","None","NA","n","NA","a","None","n","0.02689999929862097","NA","812.1363000000201","NA","990.890699999909","0.02689999929862097","668.672900000267","2","psycho","1024","2","48000","-16","experiment","3","odd","흙","natural","NA","168802.14819999947","23810.062099999413","23809.96789999972","NA","22996.162399999776","16206.633199999487","23809.11599999945","NA","168087.76979999949","16263.69639999939","169577.76190000004","169578.9294999995","17256.657500000074","168296.01409999942","NA","168907.8744999997","168079.64989999981","Extended template","0","2.1024000052493648","61","yes","1024"
"0","0","0.03450322589255408","0.03450322589255408","white","yes","psycho","psycho","psycho","0","uniform","0","undefined","0","n","1","0","64","1","1","0","0","0","0","NA","64","0","64","64","0","64","1","64","64","Tue Dec  5 18:00:30 2023","A template containing a practice and an experimental phase","yes","TalkFile_언어학과심리실험_B조_기말과제용심리실험.osexp.osexp","C:\Users\rober\OneDrive\Documents\Downloads","no","mono","no","18","no","black","no","yes","768","psycho","61","61","0","C:/Users/rober/OneDrive/바탕 화면/subject-3.csv","psycho","Lentiform Loewenfeld","3.3.14","no","다리","artifactual","similar-environmental","0","None","NA","n","NA","a","None","n","0.03680000008898787","NA","812.1363000000201","NA","990.890699999909","0.03680000008898787","923.4856000002765","2","psycho","1024","2","48000","-16","experiment","3","odd","강","natural","NA","170429.92719999983","23810.062099999413","23809.96789999972","NA","22996.162399999776","16206.633199999487","23809.11599999945","NA","169716.63079999964","16263.69639999939","171460.82079999996","171462.01819999987","17256.657500000074","169924.57550000018","NA","170535.6641999997","169707.77649999945","Extended template","0","2.1392000053383526","62","yes","1024"
"0","0","0.03439206358043954","0.03439206358043954","white","yes","psycho","psycho","psycho","0","uniform","0","undefined","0","x","1","0","65","1","1","0","0","0","0","NA","65","0","65","65","0","65","1","65","65","Tue Dec  5 18:00:30 2023","A template containing a practice and an experimental phase","yes","TalkFile_언어학과심리실험_B조_기말과제용심리실험.osexp.osexp","C:\Users\rober\OneDrive\Documents\Downloads","no","mono","no","18","no","black","no","yes","768","psycho","62","62","0","C:/Users/rober/OneDrive/바탕 화면/subject-3.csv","psycho","Lentiform Loewenfeld","3.3.14","no","절벽","natural","non-word","0","None","NA","n","NA","a","None","x","0.027500000229338184","NA","812.1363000000201","NA","990.890699999909","0.027500000229338184","16465.5517000001","2","psycho","1024","2","48000","-16","experiment","3","odd","물로프","non-word","NA","172318.8412999998","23810.062099999413","23809.96789999972","NA","22996.162399999776","16206.633199999487","23809.11599999945","NA","171604.47810000007","16263.69639999939","188891.27539999934","188892.02699999989","17256.657500000074","171812.97519999952","NA","172424.37639999934","171595.4541000001","Extended template","0","2.166700005567691","63","yes","1024"
"0","0","0.03437031259102241","0.03437031259102241","white","yes","psycho","psycho","psycho","0","uniform","0","undefined","0","n","1","0","66","1","1","0","0","0","0","NA","66","0","66","66","0","66","1","66","66","Tue Dec  5 18:00:30 2023","A template containing a practice and an experimental phase","yes","TalkFile_언어학과심리실험_B조_기말과제용심리실험.osexp.osexp","C:\Users\rober\OneDrive\Documents\Downloads","no","mono","no","18","no","black","no","yes","768","psycho","63","63","0","C:/Users/rober/OneDrive/바탕 화면/subject-3.csv","psycho","Lentiform Loewenfeld","3.3.14","no","가을","natural","similar-environmental","0","None","NA","n","NA","a","None","n","0.03300000025774352","NA","812.1363000000201","NA","990.890699999909","0.03300000025774352","1213.106399999553","2","psycho","1024","2","48000","-16","experiment","3","odd","낙엽","natural","NA","189747.98849999934","23810.062099999413","23809.96789999972","NA","22996.162399999776","16206.633199999487","23809.11599999945","NA","189034.36460000012","16263.69639999939","191068.53469999987","191069.32559999952","17256.657500000074","189243.19719999947","NA","189853.9270000001","189026.34099999978","Extended template","0","2.1997000058254343","64","yes","1024"
"0","0","0.034458461624252285","0.034458461624252285","white","yes","psycho","psycho","psycho","0","uniform","0","undefined","0","n","1","0","67","1","1","0","0","0","0","NA","67","0","67","67","0","67","1","67","67","Tue Dec  5 18:00:30 2023","A template containing a practice and an experimental phase","yes","TalkFile_언어학과심리실험_B조_기말과제용심리실험.osexp.osexp","C:\Users\rober\OneDrive\Documents\Downloads","no","mono","no","18","no","black","no","yes","768","psycho","64","64","0","C:/Users/rober/OneDrive/바탕 화면/subject-3.csv","psycho","Lentiform Loewenfeld","3.3.14","no","장슈","non-word","non-word","0","None","NA","n","NA","a","None","n","0.040099999750964344","NA","812.1363000000201","NA","990.890699999909","0.040099999750964344","640.891699999891","2","psycho","1024","2","48000","-16","experiment","3","odd","다람쥐","natural","NA","191929.67379999935","23810.062099999413","23809.96789999972","NA","22996.162399999776","16206.633199999487","23809.11599999945","NA","191214.91659999994","16263.69639999939","192681.5233999996","192682.2559000002","17256.657500000074","191423.18119999982","NA","192039.3022999997","191207.16379999975","Extended template","0","2.2398000055763987","65","yes","1024"
"0","0","0.034445454633841466","0.034445454633841466","white","yes","psycho","psycho","psycho","0","uniform","0","undefined","0","a","0","0","68","1","1","0","0","0","0","NA","68","0","68","68","0","68","1","68","68","Tue Dec  5 18:00:30 2023","A template containing a practice and an experimental phase","yes","TalkFile_언어학과심리실험_B조_기말과제용심리실험.osexp.osexp","C:\Users\rober\OneDrive\Documents\Downloads","no","mono","no","18","no","black","no","yes","768","psycho","65","65","0","C:/Users/rober/OneDrive/바탕 화면/subject-3.csv","psycho","Lentiform Loewenfeld","3.3.14","no","바다","natural","same phoneme","0","None","NA","n","NA","a","None","n","0.03360000025713816","NA","812.1363000000201","NA","990.890699999909","0.03360000025713816","511.329900000419","2","psycho","1024","2","48000","-16","experiment","3","odd","바구니","artifactual","NA","193536.52489999967","23810.062099999413","23809.96789999972","NA","22996.162399999776","16206.633199999487","23809.11599999945","NA","192823.98319999993","16263.69639999939","194155.7140999994","194156.9969000002","17256.657500000074","193031.81330000007","NA","193642.59799999945","192815.86329999936","Extended template","0","2.273400005833537","66","yes","1024"
"0","0","0.03437313441295305","0.03437313441295305","white","yes","psycho","psycho","psycho","0","uniform","0","undefined","0","n","1","0","69","1","1","0","0","0","0","NA","69","0","69","69","0","69","1","69","69","Tue Dec  5 18:00:30 2023","A template containing a practice and an experimental phase","yes","TalkFile_언어학과심리실험_B조_기말과제용심리실험.osexp.osexp","C:\Users\rober\OneDrive\Documents\Downloads","no","mono","no","18","no","black","no","yes","768","psycho","66","66","0","C:/Users/rober/OneDrive/바탕 화면/subject-3.csv","psycho","Lentiform Loewenfeld","3.3.14","no","보트","artifactual","same phoneme","0","None","NA","n","NA","a","None","n","0.029599999834317714","NA","812.1363000000201","NA","990.890699999909","0.029599999834317714","569.6341000002576","2","psycho","1024","2","48000","-16","experiment","3","odd","보름달","natural","NA","195047.2896000001","23810.062099999413","23809.96789999972","NA","22996.162399999776","16206.633199999487","23809.11599999945","NA","194332.46869999947","16263.69639999939","195723.67529999974","195724.43519999977","17256.657500000074","194541.26879999967","NA","195152.68839999952","194324.85649999944","Extended template","0","2.3030000056678546","67","yes","1024"
"0","0","0.034420588315804385","0.034420588315804385","white","yes","psycho","psycho","psycho","0","uniform","0","undefined","0","n","1","0","70","1","1","0","0","0","0","NA","70","0","70","70","0","70","1","70","70","Tue Dec  5 18:00:30 2023","A template containing a practice and an experimental phase","yes","TalkFile_언어학과심리실험_B조_기말과제용심리실험.osexp.osexp","C:\Users\rober\OneDrive\Documents\Downloads","no","mono","no","18","no","black","no","yes","768","psycho","67","67","0","C:/Users/rober/OneDrive/바탕 화면/subject-3.csv","psycho","Lentiform Loewenfeld","3.3.14","no","산","natural","similar-environmental","0","None","NA","n","NA","a","None","n","0.0375999998068437","NA","812.1363000000201","NA","990.890699999909","0.0375999998068437","578.8807999997516","2","psycho","1024","2","48000","-16","experiment","3","odd","계곡","natural","NA","196577.48619999984","23810.062099999413","23809.96789999972","NA","22996.162399999776","16206.633199999487","23809.11599999945","NA","195862.60499999934","16263.69639999939","197264.15879999968","197265.2306","17256.657500000074","196072.61229999948","NA","196683.13289999968","195854.2295999996","Extended template","0","2.3406000054746983","68","yes","1024"
"0","0","0.03441449282853273","0.03441449282853273","white","yes","psycho","psycho","psycho","0","uniform","0","undefined","0","a","1","0","71","1","1","0","0","0","0","NA","71","0","71","71","0","71","1","71","71","Tue Dec  5 18:00:30 2023","A template containing a practice and an experimental phase","yes","TalkFile_언어학과심리실험_B조_기말과제용심리실험.osexp.osexp","C:\Users\rober\OneDrive\Documents\Downloads","no","mono","no","18","no","black","no","yes","768","psycho","68","68","0","C:/Users/rober/OneDrive/바탕 화면/subject-3.csv","psycho","Lentiform Loewenfeld","3.3.14","no","기차","artifactual","no-correlation","0","None","NA","n","NA","a","None","a","0.033999999694060534","NA","812.1363000000201","NA","990.890699999909","0.033999999694060534","611.1962000004714","2","psycho","1024","2","48000","-16","experiment","3","odd","가방","artifactual","NA","198148.00399999967","23810.062099999413","23809.96789999972","NA","22996.162399999776","16206.633199999487","23809.11599999945","NA","197433.34890000004","16263.69639999939","198866.81899999984","198867.59660000008","17256.657500000074","197642.78120000017","NA","198254.2145999996","197425.48199999964","Extended template","0","2.374600005168759","69","yes","1024"
"0","0","0.03440857151092912","0.03440857151092912","white","yes","psycho","psycho","psycho","0","uniform","0","undefined","0","n","1","0","72","1","1","0","0","0","0","NA","72","0","72","72","0","72","1","72","72","Tue Dec  5 18:00:30 2023","A template containing a practice and an experimental phase","yes","TalkFile_언어학과심리실험_B조_기말과제용심리실험.osexp.osexp","C:\Users\rober\OneDrive\Documents\Downloads","no","mono","no","18","no","black","no","yes","768","psycho","69","69","0","C:/Users/rober/OneDrive/바탕 화면/subject-3.csv","psycho","Lentiform Loewenfeld","3.3.14","no","멜블옴","non-word","non-word","0","None","NA","n","NA","a","None","n","0.03400000059627928","NA","812.1363000000201","NA","990.890699999909","0.03400000059627928","583.9655999998504","2","psycho","1024","2","48000","-16","experiment","3","odd","폭포","natural","NA","199723.57869999995","23810.062099999413","23809.96789999972","NA","22996.162399999776","16206.633199999487","23809.11599999945","NA","199009.8309999994","16263.69639999939","200414.7379999995","200415.70299999966","17256.657500000074","199217.89649999936","NA","199829.14249999975","199001.46959999984","Extended template","0","2.408600005765038","70","yes","1024"
"0","0","0.03448732402333481","0.03448732402333481","white","yes","psycho","psycho","psycho","0","uniform","0","undefined","0","a","1","0","73","1","1","0","0","0","0","NA","73","0","73","73","0","73","1","73","73","Tue Dec  5 18:00:30 2023","A template containing a practice and an experimental phase","yes","TalkFile_언어학과심리실험_B조_기말과제용심리실험.osexp.osexp","C:\Users\rober\OneDrive\Documents\Downloads","no","mono","no","18","no","black","no","yes","768","psycho","70","70","0","C:/Users/rober/OneDrive/바탕 화면/subject-3.csv","psycho","Lentiform Loewenfeld","3.3.14","no","벌레","natural","same phoneme","0","None","NA","n","NA","a","None","a","0.03999999989173375","NA","812.1363000000201","NA","990.890699999909","0.03999999989173375","777.6455999992322","2","psycho","1024","2","48000","-16","experiment","3","odd","발레","artifactual","NA","201307.16459999984","23810.062099999413","23809.96789999972","NA","22996.162399999776","16206.633199999487","23809.11599999945","NA","200592.53999999963","16263.69639999939","202193.12869999977","202193.9655999995","17256.657500000074","200800.9506999997","NA","201412.68260000015","200583.63559999998","Extended template","0","2.448600005656772","71","yes","1024"
"0","0","0.03440555564005384","0.03440555564005384","white","yes","psycho","psycho","psycho","0","uniform","0","undefined","0","a","1","0","74","1","1","0","0","0","0","NA","74","0","74","74","0","74","1","74","74","Tue Dec  5 18:00:30 2023","A template containing a practice and an experimental phase","yes","TalkFile_언어학과심리실험_B조_기말과제용심리실험.osexp.osexp","C:\Users\rober\OneDrive\Documents\Downloads","no","mono","no","18","no","black","no","yes","768","psycho","71","71","0","C:/Users/rober/OneDrive/바탕 화면/subject-3.csv","psycho","Lentiform Loewenfeld","3.3.14","no","피자","artifactual","similar-environmental","0","None","NA","n","NA","a","None","a","0.028600000427104533","NA","812.1363000000201","NA","990.890699999909","0.028600000427104533","669.781000000512","2","psycho","1024","2","48000","-16","experiment","3","odd","파스타","artifactual","NA","203047.9730999996","23810.062099999413","23809.96789999972","NA","22996.162399999776","16206.633199999487","23809.11599999945","NA","202335.14339999965","16263.69639999939","203825.17969999934","203825.99140000003","17256.657500000074","202543.1294","NA","203153.9428999995","202326.25740000003","Extended template","0","2.4772000060838764","72","yes","1024"
"0","0","0.034341095969553766","0.034341095969553766","white","yes","psycho","psycho","psycho","0","uniform","0","undefined","0","a","1","0","75","1","1","0","0","0","0","NA","75","0","75","75","0","75","1","75","75","Tue Dec  5 18:00:30 2023","A template containing a practice and an experimental phase","yes","TalkFile_언어학과심리실험_B조_기말과제용심리실험.osexp.osexp","C:\Users\rober\OneDrive\Documents\Downloads","no","mono","no","18","no","black","no","yes","768","psycho","72","72","0","C:/Users/rober/OneDrive/바탕 화면/subject-3.csv","psycho","Lentiform Loewenfeld","3.3.14","no","경주","artifactual","no-correlation","0","None","NA","n","NA","a","None","a","0.029699999693548307","NA","812.1363000000201","NA","990.890699999909","0.029699999693548307","589.3396999999823","2","psycho","1024","2","48000","-16","experiment","3","odd","버스","artifactual","NA","204678.30369999955","23810.062099999413","23809.96789999972","NA","22996.162399999776","16206.633199999487","23809.11599999945","NA","203964.63989999937","16263.69639999939","205375.0235999996","205375.87089999943","17256.657500000074","204173.13299999933","NA","204784.21209999942","203956.86440000008","Extended template","0","2.5069000057774247","73","yes","1024"
"0","0","0.034286486560410376","0.034286486560410376","white","yes","psycho","psycho","psycho","0","uniform","0","undefined","0","a","1","0","76","1","1","0","0","0","0","NA","76","0","76","76","0","76","1","76","76","Tue Dec  5 18:00:30 2023","A template containing a practice and an experimental phase","yes","TalkFile_언어학과심리실험_B조_기말과제용심리실험.osexp.osexp","C:\Users\rober\OneDrive\Documents\Downloads","no","mono","no","18","no","black","no","yes","768","psycho","73","73","0","C:/Users/rober/OneDrive/바탕 화면/subject-3.csv","psycho","Lentiform Loewenfeld","3.3.14","no","계곡","natural","no-correlation","0","None","NA","n","NA","a","None","a","0.030299999692942947","NA","812.1363000000201","NA","990.890699999909","0.030299999692942947","614.32779999997","2","psycho","1024","2","48000","-16","experiment","3","odd","화장실","artifactual","NA","206231.5955999993","23810.062099999413","23809.96789999972","NA","22996.162399999776","16206.633199999487","23809.11599999945","NA","205518.8902","16263.69639999939","206953.61820000017","206954.8101999999","17256.657500000074","205726.50479999994","NA","206337.5765999999","205510.0328999997","Extended template","0","2.5372000054703676","74","yes","1024"
"0","0","0.03467600006852687","0.03467600006852687","white","yes","psycho","psycho","psycho","0","uniform","0","undefined","0","a","1","0","77","1","1","0","0","0","0","NA","77","0","77","77","0","77","1","77","77","Tue Dec  5 18:00:30 2023","A template containing a practice and an experimental phase","yes","TalkFile_언어학과심리실험_B조_기말과제용심리실험.osexp.osexp","C:\Users\rober\OneDrive\Documents\Downloads","no","mono","no","18","no","black","no","yes","768","psycho","74","74","0","C:/Users/rober/OneDrive/바탕 화면/subject-3.csv","psycho","Lentiform Loewenfeld","3.3.14","no","바다","natural","same phoneme","0","None","NA","n","NA","a","None","a","0.06349999966914766","NA","812.1363000000201","NA","990.890699999909","0.06349999966914766","652.4921999998624","2","psycho","1024","2","48000","-16","experiment","3","odd","바닥","artifactual","NA","207806.95990000005","23810.062099999413","23809.96789999972","NA","22996.162399999776","16206.633199999487","23809.11599999945","NA","207093.13500000007","16263.69639999939","208566.81440000012","208568.04459999967","17256.657500000074","207301.72129999936","NA","207912.49830000015","207084.78060000017","Extended template","0","2.6007000051395153","75","yes","1024"
"0","0","0.03465921058954049","0.03465921058954049","white","yes","psycho","psycho","psycho","0","uniform","0","undefined","0","a","1","0","78","1","1","0","0","0","0","NA","78","0","78","78","0","78","1","78","78","Tue Dec  5 18:00:30 2023","A template containing a practice and an experimental phase","yes","TalkFile_언어학과심리실험_B조_기말과제용심리실험.osexp.osexp","C:\Users\rober\OneDrive\Documents\Downloads","no","mono","no","18","no","black","no","yes","768","psycho","75","75","0","C:/Users/rober/OneDrive/바탕 화면/subject-3.csv","psycho","Lentiform Loewenfeld","3.3.14","no","구름","natural","same phoneme","0","None","NA","n","NA","a","None","a","0.03339999966556206","NA","812.1363000000201","NA","990.890699999909","0.03339999966556206","855.5906000001123","2","psycho","1024","2","48000","-16","experiment","3","odd","구두","artifactual","NA","209435.65229999967","23810.062099999413","23809.96789999972","NA","22996.162399999776","16206.633199999487","23809.11599999945","NA","208723.00039999938","16263.69639999939","210398.81849999982","210399.8340999997","17256.657500000074","208930.6230000002","NA","209541.45149999933","208714.82769999967","Extended template","0","2.6341000048050773","76","yes","1024"
"0","0","0.03484675331034035","0.03484675331034035","white","yes","psycho","psycho","psycho","0","uniform","0","undefined","0","a","1","0","79","1","1","0","0","0","0","NA","79","0","79","79","0","79","1","79","79","Tue Dec  5 18:00:30 2023","A template containing a practice and an experimental phase","yes","TalkFile_언어학과심리실험_B조_기말과제용심리실험.osexp.osexp","C:\Users\rober\OneDrive\Documents\Downloads","no","mono","no","18","no","black","no","yes","768","psycho","76","76","0","C:/Users/rober/OneDrive/바탕 화면/subject-3.csv","psycho","Lentiform Loewenfeld","3.3.14","no","눈","natural","similar-environmental","0","None","NA","n","NA","a","None","a","0.049100000091129914","NA","812.1363000000201","NA","990.890699999909","0.049100000091129914","687.5548999996681","2","psycho","1024","2","48000","-16","experiment","3","odd","스키","artifactual","NA","211266.9442999995","23810.062099999413","23809.96789999972","NA","22996.162399999776","16206.633199999487","23809.11599999945","NA","210552.92759999976","16263.69639999939","212062.43279999943","212064.29250000019","17256.657500000074","210762.06339999952","NA","211372.58529999963","210542.1980000001","Extended template","0","2.6832000048962072","77","yes","1024"
"0","0","0.03478461544923798","0.03478461544923798","white","yes","psycho","psycho","psycho","0","uniform","0","undefined","0","a","1","0","80","1","1","0","0","0","0","NA","80","0","80","80","0","80","1","80","80","Tue Dec  5 18:00:30 2023","A template containing a practice and an experimental phase","yes","TalkFile_언어학과심리실험_B조_기말과제용심리실험.osexp.osexp","C:\Users\rober\OneDrive\Documents\Downloads","no","mono","no","18","no","black","no","yes","768","psycho","77","77","0","C:/Users/rober/OneDrive/바탕 화면/subject-3.csv","psycho","Lentiform Loewenfeld","3.3.14","no","과일","natural","no-correlation","0","None","NA","n","NA","a","None","a","0.030000000144355","NA","812.1363000000201","NA","990.890699999909","0.030000000144355","556.7823999999964","2","psycho","1024","2","48000","-16","experiment","3","odd","가방","artifactual","NA","212934.2472999997","23810.062099999413","23809.96789999972","NA","22996.162399999776","16206.633199999487","23809.11599999945","NA","212220.82489999957","16263.69639999939","213598.50039999947","213599.43769999972","17256.657500000074","212428.70289999974","NA","213039.62499999942","212211.9775000001","Extended template","0","2.7132000050405622","78","yes","1024"
